time,seconds_elapsed,z,y,x
1621953358652649500,-302.2503505859375,1.307495972251892,-0.15665800391584633,-0.014235299970954655
1621953358662642400,-302.2403576660156,0.935222164016962,-0.06719605191648007,0.0545512360073626
1621953358672635600,-302.2303642578125,0.3280699248492718,0.035325288142263885,0.10576061424091458
1621953358682628400,-302.22037158203125,-0.24001053312420845,0.1742795853242278,0.14915771128833294
1621953358692621600,-302.21037841796874,-0.5552355894476175,0.21309563819169997,0.146789959243685
1621953358702614500,-302.2003854980469,-0.6190314775317907,0.1220823650971055,0.11022570389099419
1621953358712607500,-302.190392578125,-0.5458873308658599,-0.019128186579048634,0.07189867664948105
1621953358722600400,-302.1803996582031,-0.348638665625453,-0.1745779837489128,0.005549012429267168
1621953358732593700,-302.17040625,-0.07201134324371815,-0.25794015756845473,-0.05694938319027423
1621953358742586400,-302.16041357421875,0.13170681027173994,-0.24758856716305017,-0.11862345681488513
1621953358752579300,-302.15042065429685,0.20371055473089217,-0.16019874526262282,-0.1534875571861863
1621953358762572500,-302.1404274902344,0.13425591023266314,-0.024732874718308446,-0.1272758420869708
1621953358772565200,-302.1304348144531,-0.04126256923675537,0.1116954111173749,-0.07750219574496149
1621953358782558500,-302.1204416503906,-0.24759996533989906,0.17575082692056893,-0.047051966293156146
1621953358792551400,-302.11044848632815,-0.4105763586223125,0.1958621793180704,0.021352146238833664
1621953358802544600,-302.10045532226565,-0.5005465524047613,0.1782674859166145,0.07167524315714836
1621953358812537300,-302.09046264648435,-0.5166366864621639,0.12176146257966756,0.11443389617055653
1621953358822530600,-302.08046948242185,-0.46818157537281513,0.06702770961225032,0.13660671114251016
1621953358832523500,-302.0704765625,-0.3999105877012014,0.008116378699243068,0.14231113332919776
1621953358842516500,-302.0604833984375,-0.332068054574728,-0.04326046505570411,0.1192443651922047
1621953358852509400,-302.0504904785156,-0.1997054107427597,-0.06860825680196285,0.105396164842695
1621953358862502700,-302.04049731445315,-0.04886076928079128,-0.09808394213318825,0.06576331569962203
1621953358872495400,-302.03050463867186,0.07460428234636783,-0.10937982765138149,0.04632555171474814
1621953358882488600,-302.02051147460935,0.10512567733824252,-0.11068535729199647,0.017196780125051735
1621953358892481500,-302.0105185546875,0.1135702650785446,-0.11004384451806544,0.011890928801894187
1621953358902474500,-302.000525390625,0.09540390926897525,-0.08783259723186493,0.009695318453758954
1621953358912467500,-301.9905324707031,0.02007540430128574,-0.07932341982275247,0.033057854666933416
1621953358922460700,-301.98053930664065,-0.040326749691367146,-0.12063216628879309,0.02756941331848502
1621953358932453400,-301.97054663085936,-0.08064473155438899,-0.1624500313207507,-0.016911387312412263
1621953358942446600,-301.96055346679685,-0.047557285466790195,-0.15918226169645786,-0.028806626963242887
1621953358952439600,-301.950560546875,0.06839023013710975,-0.09630231941342353,-0.05130648193247616
1621953358962432500,-301.9405673828125,0.21791443665027618,-0.014086685280501842,-0.10238149319663643
1621953358972425500,-301.9305744628906,0.34657354978919025,0.0863350521504879,-0.13702785916402935
1621953358982418400,-301.92058154296876,0.36562837887108324,0.1636462553679943,-0.14245806751921772
1621953358992411400,-301.91058862304686,0.3523018643081188,0.24371610964387655,-0.16541889106370508
1621953359002404400,-301.900595703125,0.35121932976841924,0.33511575170755387,-0.15660656598955391
1621953359012397600,-301.8906025390625,0.3393780853271484,0.37311931914836166,-0.12729447372220457
1621953359022390300,-301.8806096191406,0.27755028244554997,0.3351896937265992,-0.19720131896734236
1621953359032383500,-301.8706164550781,0.2985346182852983,0.3163184045180678,-0.31775530545338987
1621953359042376400,-301.86062353515626,0.3108551706761122,0.37917876531779765,-0.3769127200819552
1621953359052369700,-301.85063037109376,0.36790976780652995,0.5029959913834929,-0.32941549423933025
1621953359062362400,-301.8406376953125,0.39273967315852637,0.5211541638866066,-0.29404541710726917
1621953359072355600,-301.83064453125,0.39088966137766834,0.4731123097732663,-0.27382906996533274
1621953359082348500,-301.8206513671875,0.4543529565066099,0.39219811362773177,-0.28849640467800197
1621953359092341500,-301.8106584472656,0.6963643080592155,0.30791268748342987,-0.36352424619868395
1621953359102334500,-301.80066552734377,0.9281599705457687,0.25178163493871686,-0.4354007110163569
1621953359112327700,-301.79067236328126,1.1323498332262039,0.21993425204008815,-0.4965926271472126
1621953359122320400,-301.7806796875,1.2519850974321365,0.16932547004818915,-0.5691669380359351
1621953359132313600,-301.77068627929685,1.4758061277776955,0.07069879934042692,-0.7080864561654627
1621953359142306600,-301.760693359375,1.4721803384959697,0.08294833232164382,-0.7591054263934492
1621953359152299500,-301.7507004394531,0.999971407303214,0.27094810770154,-0.9139653679113835
1621953359162292500,-301.74070751953127,0.6761106245815753,0.612807488450408,-1.2223399007529019
1621953359172285400,-301.73071459960937,0.5675216550469399,0.84652622795403,-0.6589423398986458
1621953359182278400,-301.7207216796875,0.44851299830675123,0.5486076957404613,-0.3351329951032996
1621953359192271400,-301.71072875976563,0.39134208132028575,0.18613164342045782,-0.902649681714177
1621953359202264600,-301.7007353515625,0.721990332224965,0.40087563334107396,-1.4735184552319347
1621953359212257300,-301.6907426757812,1.5036235245078802,0.7330565006405114,-2.0589799638561903
1621953359222250500,-301.6807495117188,2.5876421652853487,1.053776647248864,-2.462282093691826
1621953359232243500,-301.6707565917969,3.5609488530248403,1.208005378191173,-2.799513814640045
1621953359242236400,-301.660763671875,4.336193221053481,0.8499977034568786,-2.0939168372027575
1621953359252229400,-301.6507705078125,4.4148815578430884,0.02097878288179636,-1.925156161430478
1621953359262222600,-301.64077734375,2.5446955884844065,0.8785790702968835,-2.352601383397728
1621953359272215300,-301.6307846679687,1.9107482813715935,1.4988912352889776,-1.1606290022492407
1621953359282209000,-301.620791015625,2.208010395503044,1.3213953182667493,-1.4818267032414674
1621953359292202000,-301.6107980957031,2.2160510786175727,0.9959288539141415,-2.0604633342817427
1621953359302195000,-301.60080517578126,2.056351515048742,1.4810565956518054,-2.614993698069453
1621953359312188000,-301.59081201171875,1.248970133525133,2.546202485916018,-3.246967951543629
1621953359322180900,-301.58081909179685,0.11691022315621376,3.6035341952979563,-3.691981125035882
1621953359332173800,-301.570826171875,-1.3518202671468258,4.609640159833431,-2.6197897001743313
1621953359342166800,-301.5608332519531,-4.418630096721649,5.369749502572417,1.1004390297025441
1621953359352160000,-301.5508400878906,-4.171156388109922,4.320675333926081,2.922610032954812
1621953359362153000,-301.5408469238281,-0.25584347755014897,2.7980688765287396,-0.05116963074505329
1621953359372146000,-301.53085400390626,-1.2967185576498508,2.353189558549225,0.008306348313391209
1621953359382139000,-301.52086108398436,-1.4481570733517408,1.6929074944794178,0.39511575464010235
1621953359392132000,-301.51086791992185,-0.4930126497685909,1.3507427010431885,0.2223094567388296
1621953359402124800,-301.5008752441406,-0.37203999947905536,1.7352935147881507,0.16423662247657775
1621953359412118000,-301.4908820800781,-0.6543003593116998,2.7911574897050855,0.13683248272240162
1621953359422111000,-301.4808889160156,-0.5008095872551203,4.134423571257293,0.24129969615191219
1621953359432104000,-301.47089599609376,-0.6195657305389642,5.038032161131501,0.26566198399215935
1621953359442097000,-301.46090307617186,-1.2788152366906405,5.458508566999435,0.8853513409107923
1621953359452090000,-301.45090991210935,-1.3431652515262364,5.025603472191095,1.526822613787651
1621953359462082800,-301.4409172363281,0.0270136791318655,3.2570880712807178,1.0179626988068222
1621953359472076000,-301.4309240722656,1.5885282515943049,1.511547887766361,0.7405345814362168
1621953359482069000,-301.4209309082031,1.495551861733198,1.2290516733512282,1.1507207716971635
1621953359492062000,-301.41093798828126,-0.2654962720364332,1.2432061631709337,1.4328630581080912
1621953359502056000,-301.4009440917969,-1.9040613509535789,0.8522942899614572,1.299360596591234
1621953359512048000,-301.39095190429686,-1.82037652105093,0.9559370352655648,1.2607108402013778
1621953359522040800,-301.3809592285156,-0.9155249453783034,1.6677976031422614,1.1496166098475455
1621953359532034800,-301.3709650878906,-0.44957916623353955,1.7470824445202946,0.6666822865009308
1621953359542028000,-301.3609719238281,-0.11452420480251312,-0.07737550062537193,0.7018342639029026
1621953359552021000,-301.3509790039063,-0.4203559943586588,-2.149870925745368,1.3646248036623
1621953359562014000,-301.3409860839844,-0.13384966751933097,-3.37664004111737,0.03633504970669746
1621953359572007000,-301.3309931640625,0.8555617673248052,-3.5246512127190828,-1.9383377145648002
1621953359582000000,-301.32099975585936,0.47626609762907024,-1.9004905067294835,-2.626318225160241
1621953359591992800,-301.3110070800781,-2.9207079987257716,1.7968179508090019,3.7993630568683145
1621953359601986000,-301.3010139160156,-6.433751191237569,2.923117105694115,11.321288839519024
1621953359611979000,-301.2910209960938,-2.1859616453021764,0.4665317623391747,4.684788632059097
1621953359621972000,-301.2810280761719,0.7151046643644571,-1.338680799588561,3.1795237700849768
1621953359631965000,-301.27103515625,4.729716153544187,-3.221495364373922,0.5215700512111187
1621953359641958000,-301.2610419921875,4.900754857251048,-3.7715029900401826,-1.5437667343258856
1621953359651950800,-301.25104907226563,3.8934669894546268,-2.9141476172968743,-2.090899096816778
1621953359661943800,-301.24105615234373,2.757414794579148,-1.6050672984629868,-2.6995640786349773
1621953359671937000,-301.2310629882812,1.9204969374477863,-0.59324909376055,-4.3034886368036265
1621953359681929700,-301.2210703125,2.830513933059573,-0.43419498848840593,-2.5175866322845217
1621953359691923000,-301.2110771484375,3.8238691370934244,-1.3413995570279658,0.12605097646713256
1621953359701916000,-301.201083984375,3.757526487135887,-1.8955463283255696,0.4799444938808679
1621953359711909000,-301.1910908203125,2.07899706209898,-1.11946989338696,0.4175613952040672
1621953359721901800,-301.18109814453123,0.06074760642945766,1.0808837037526071,2.0386054304778574
1621953359731895000,-301.1711049804687,-0.4674626134485006,2.868211795552075,2.5157354514598844
1621953359741888000,-301.1611120605469,0.17225334019362926,3.5345249564796686,2.5863170541614293
1621953359751881000,-301.151119140625,0.3591238192826509,3.849082488805055,3.2356665130674838
1621953359761874000,-301.1411259765625,-1.6627689613252876,2.0156340124741194,3.952065308895707
1621953359771867100,-301.1311328125,-4.723844631162286,-4.447434166401624,5.168157255169749
1621953359781859800,-301.12114013671874,-2.706946590101719,-6.846900030696392,3.373818261694908
1621953359791853000,-301.11114697265623,0.9361141444206237,-4.046435198941826,2.2209727529287338
1621953359801846000,-301.1011540527344,1.387963593673706,-1.5127274529397488,2.9566870746016503
1621953359811839000,-301.0911611328125,-1.059535941427946,-1.3137594165608286,2.8449609760850665
1621953359821832000,-301.08116796875,-1.400690388777852,-1.3659019839912652,2.095254369416833
1621953359831825000,-301.07117504882814,-0.4693289918422699,-1.4658429521679877,1.6289759973168372
1621953359841817900,-301.06118212890624,0.18414193090796468,-0.776207952363789,1.4548364049851894
1621953359851810800,-301.0511892089844,-1.0374699478313327,1.3971420486465096,2.323726440438628
1621953359861804000,-301.0411960449219,-0.6132143156856298,2.1551175942271947,3.158728234815597
1621953359871796700,-301.0312033691406,1.0254036624625325,1.30984019729048,2.975629675480723
1621953359881790000,-301.0212099609375,0.6795704096466303,1.1914976032435893,2.8417981281399727
1621953359891783000,-301.01121704101564,-0.20509470256567,2.5544211559459566,3.5442397102862593
1621953359901776000,-301.00122412109374,-0.6192334298446774,3.63106429951936,3.8425510412096977
1621953359911768800,-300.9912312011719,-1.016344449955225,2.8172733432143926,4.022103306239843
1621953359921762000,-300.9812380371094,-1.2241238615602255,1.4095593394100665,4.282881902104616
1621953359931754800,-300.9712453613281,-1.7375304800599813,0.5274953496068716,4.364171361303329
1621953359941748000,-300.961251953125,-1.4570608030363916,1.0971072549313305,4.563952759891748
1621953359951741000,-300.95125903320314,-0.8000289729341864,1.3295119892269371,4.664083113160729
1621953359961734100,-300.94126586914064,-0.66192778545022,-0.5302350037038326,4.455982214516401
1621953359971726800,-300.9312731933594,-0.37153292673975225,-1.8052917646437883,4.35236401913166
1621953359981720000,-300.9212800292969,-0.16083967351466416,-1.1306424447864294,4.375101920640469
1621953359991713000,-300.9112868652344,-0.5328139142811298,-0.21243512845635412,3.936294323790073
1621953360001706000,-300.9012939453125,-1.2927227660119534,-0.049722939068078995,2.965426261374354
1621953360011699000,-300.89130102539065,-1.681563970427215,-0.4238485126495361,2.008693691816926
1621953360021692200,-300.88130786132814,-1.9592272117279468,-1.4184797279685735,0.9577443769484758
1621953360031684900,-300.87131518554685,-2.0342488427035508,-2.463982467868924,-0.010409750333428383
1621953360041677800,-300.861322265625,-2.0187083053529262,-3.571072187632322,-1.1074445245504378
1621953360051671000,-300.8513288574219,-1.9423639013409613,-4.914835989573597,-2.1028233433663845
1621953360061663700,-300.8413361816406,-1.8479899196416139,-6.195599437722564,-3.0434698705196377
1621953360071657000,-300.83134301757815,-1.739537728229165,-6.499480093210935,-4.022563909488916
1621953360081650000,-300.82135009765625,-1.8910007938504219,-6.796515997371077,-5.041470903408527
1621953360091643000,-300.81135717773435,-0.7052145539909601,-5.764180197557806,-5.389146276959776
1621953360101635800,-300.8013642578125,-1.262545654413104,-4.282464553475379,-4.495495894259214
1621953360111629000,-300.7913708496094,-5.222785501936078,-3.7018770806282757,-3.5917023032069206
1621953360121621800,-300.7813781738281,-7.293934188622236,-2.3746210536345838,-2.1789842075049877
1621953360131615000,-300.77138500976565,-6.205218914461136,-0.9116095255002379,-0.42799452641308305
1621953360141608000,-300.76139208984375,-3.422854387542605,-0.19910510676205156,0.5507143126308918
1621953360151602000,-300.75139819335936,-1.47747610681653,-0.004384206433594226,1.2869599647015333
1621953360161595000,-300.74140502929686,-0.807993375942111,-0.24409341852366923,2.0839006162315608
1621953360171587800,-300.731412109375,-0.4519382965803146,-1.6967130242422221,3.1957103502541777
1621953360181581000,-300.7214189453125,-0.6903519159018993,-5.240114822399616,5.121130715578794
1621953360191573800,-300.7114262695313,-1.2200550046861172,-7.221240123811364,5.306313095450401
1621953360201567000,-300.70143310546877,-0.7425918062269687,-5.050483646425604,1.3337094409167767
1621953360211560000,-300.69144018554687,-0.20744696478024124,-2.1178665987193583,-2.7824761705994603
1621953360221553000,-300.68144702148436,-0.28354236246719955,3.178182292348146,-5.404378917405009
1621953360231545900,-300.6714541015625,1.678303799587488,11.16526591863632,-5.489430944007635
1621953360241539000,-300.6614609375,6.377334892010689,13.096720303428173,-3.005317542257905
1621953360251531800,-300.6514682617188,7.919046447372436,8.69521845164001,-0.2881692916154861
1621953360261525000,-300.64147509765627,5.810997478312253,3.7588422459095714,1.9009563706755637
1621953360271518000,-300.63148193359376,2.455356678342819,2.447159927883744,2.560561850658059
1621953360281514800,-300.6214853515625,-0.8523055420078337,1.9249279056325554,2.772314842069149
1621953360291507700,-300.6114921875,-1.7746660324946044,0.274681741271913,1.9422335529595611
1621953360301500700,-300.6014992675781,-0.4953098207950592,-0.5080141118064523,-0.30448154399096966
1621953360311493600,-300.59150634765626,0.1522163682065904,0.8484902215033769,-1.428396726348996
1621953360321486600,-300.58151342773436,0.19665055321678518,3.278262961256504,-0.9234639216840267
1621953360331479800,-300.57152026367186,1.2337315017305315,4.656418862143159,-0.41491000391244887
1621953360341472500,-300.5615275878906,1.5899086000368,4.244070817673206,-0.3573819440513849
1621953360351465700,-300.5515341796875,-0.5829740757226943,2.3089275152355433,-0.953769628098607
1621953360361458700,-300.5415412597656,-2.78176773006916,0.7823509851634501,-1.042968837508559
1621953360371451600,-300.53154833984377,-2.663500247085094,0.2746235813438892,-0.6981961996614933
1621953360381444600,-300.52155541992187,-2.058958921068162,0.053797056639194485,-0.6825748521596193
1621953360391437800,-300.51156225585936,-1.8529741377949713,-0.44569677184224127,-0.7530225993484259
1621953360401430500,-300.5015695800781,-1.9704550004459915,-0.716891547781229,-1.1590724204570055
1621953360411423700,-300.491576171875,-2.3294530013918875,-0.44889001492559905,-1.3359516668856144
1621953360421416700,-300.4815832519531,-1.749649664659798,-0.3001379618287086,-0.3383896588116884
1621953360431409700,-300.47159033203127,-1.3937868929997086,-1.5110902071267365,0.7290285602986812
1621953360441402600,-300.46159741210937,-1.0626740933232008,-3.8725726699858902,-2.0856839925169943
1621953360451395800,-300.45160424804686,-0.22429186272770166,-4.754316926315426,-0.5179296488821507
1621953360461388500,-300.44161157226563,-1.4019457956664263,-3.3989866052210327,-1.0514280382961034
1621953360471381800,-300.4316181640625,-0.7936214439794421,-1.2675059071689843,-4.820719782027602
1621953360481374700,-300.4216252441406,-0.5714306451842188,-1.047377886122465,-3.7056098374158144
1621953360491367700,-300.4116323242188,-0.7843513652004301,-1.0897159756362438,-1.06105803642869
1621953360501360600,-300.4016394042969,0.6380686248265206,-1.0664864912182093,-0.4966624044477939
1621953360511353900,-300.39164624023437,2.6635072613477706,-1.0175912351459264,-1.4817431166112423
1621953360521346800,-300.38165307617186,2.6565280699849128,-1.5425065051317215,-2.0615227802067992
1621953360531339500,-300.3716604003906,2.9476503661870956,-2.6372183893591163,-3.1935996417105197
1621953360541332700,-300.3616672363281,3.060525050216913,-1.93389943985641,-3.489599188560247
1621953360551325700,-300.3516743164063,2.2094927430152893,0.39658641171455383,-1.7154478275895118
1621953360561318700,-300.3416813964844,2.071040550136566,2.346601120069623,1.8840461524069307
1621953360571311600,-300.3316884765625,2.2123475479245185,3.645204760813713,5.395764818316698
1621953360581304800,-300.32169506835936,1.3924819478809833,3.324199952045083,7.013413365933299
1621953360591297500,-300.3117023925781,-0.4069336182057857,1.517104352849722,7.819352731955051
1621953360601290800,-300.3017092285156,-4.270651366084814,0.555113424372673,7.834437488362193
1621953360611283700,-300.2917163085938,-6.931427741163969,0.024302082085609435,4.7417023594141
1621953360621276700,-300.2817233886719,-2.8570541494607924,-2.2252906161278485,0.4411152892708778
1621953360631269600,-300.27173046875,-1.479845612426847,-2.962144755485654,-0.36427345713078974
1621953360641262800,-300.26173706054686,-0.9740992263566702,-1.2508645689696072,0.07527882060706614
1621953360651255600,-300.25174438476563,-0.2837058824658394,0.8273802134573459,0.11765139691233634
1621953360661248800,-300.2417512207031,-1.5731670163333416,1.6776485505491494,0.37816286627352236
1621953360671241700,-300.2317583007812,-3.0343413921684026,1.2833768455177545,0.183270408770442
1621953360681234700,-300.2217653808594,-2.3069746276021004,1.0271867464870215,-1.3970230984419583
1621953360691228700,-300.2117712402344,-1.8177509948529302,2.003891259971261,-2.0299609362512827
1621953360701221600,-300.2017783203125,-2.2615911790430543,3.5506034000992774,-1.0865613109976053
1621953360711214800,-300.19178515625,-1.749171379623562,3.6346699227958914,-0.30364743125438687
1621953360721207600,-300.18179248046874,-0.7965227183789014,2.0093845966905355,-0.11548106713593005
1621953360731200800,-300.17179931640624,0.06866612446904181,0.8991010493218898,-1.3775421529024838
1621953360741193700,-300.16180615234373,0.35127792808786035,0.5611451057523489,-2.9322774404883383
1621953360751186700,-300.1518132324219,-0.18142726512178778,1.1141828928947448,-3.155119981190562
1621953360761179600,-300.1418203125,-0.32644363882169125,1.4425900868743657,-2.129101693961024
1621953360771172900,-300.1318271484375,0.13844503248557447,1.6010224069863557,-0.791883368140459
1621953360781165600,-300.12183447265625,0.2900960218943655,1.5379121630787849,0.10054244120121002
1621953360791158800,-300.11184130859374,-0.6008797347694635,1.4565560683846472,0.1810439648926258
1621953360801151700,-300.10184814453123,-0.8957296731926501,1.0254355189055204,-0.3224555920988321
1621953360811144700,-300.0918552246094,-0.7143821953088044,-0.00009995324313640594,-0.4839022915959358
1621953360821137700,-300.0818623046875,-0.45548999771252274,-1.0691869823485611,-0.03523088785707951
1621953360831130600,-300.07186938476565,0.22050328409969805,-2.176725614923239,1.1976403437823055
1621953360841123600,-300.06187646484375,1.4098976314537226,-3.4566719014704224,2.7151030085504053
1621953360851116500,-300.05188354492185,2.110941037239879,-2.9912597908109424,3.1987440188616514
1621953360861109800,-300.04189013671873,4.081605296522379,-1.095375901094079,3.4119606530845163
1621953360871102700,-300.0318972167969,5.443082449808716,-0.43861119749546046,4.19529421954453
1621953360881095700,-300.021904296875,4.457499633342027,-0.7825719344377517,4.801838555946945
1621953360891088600,-300.01191137695315,2.1933589159466327,-0.4015811512619257,4.15195133690238
1621953360901081900,-300.00191821289064,0.21913148428983986,0.1681388906121254,3.2191379875928163
1621953360911074600,-299.99192553710935,-0.71930262751095,-0.5122223771512509,2.51296481770277
1621953360921067800,-299.98193212890624,-0.35675928210839625,-2.3902228196531534,2.08625156327188
1621953360931060700,-299.9719392089844,0.4087865525960922,-4.210384821170568,2.3598925633192063
1621953360941053700,-299.9619462890625,0.8107038039445876,-4.657653956896066,2.7008710695803164
1621953360951046700,-299.9519533691406,1.2810719295762478,-3.55568990958333,2.7949124583244322
1621953360961040000,-299.94196020507815,1.190026946169138,-2.0175462758362293,2.585126383072138
1621953360971032600,-299.93196752929686,-0.275342981659621,-1.2552718640178442,1.5692761463746427
1621953360981025800,-299.92197412109374,-1.621818526777625,-0.6035632747650146,-0.6248030466705561
1621953360991018800,-299.9119812011719,-1.9772626346342264,-0.8049637989878654,-2.220067620782554
1621953361001011700,-299.90198828125,-2.266476612997055,0.3006055793404579,-1.642204896724224
1621953361011004700,-299.8919953613281,-3.3911095882356164,2.960919013082981,0.42872751686275
1621953361020998000,-299.88200219726565,-4.403870334485173,3.2505291511565444,0.7857105247244238
1621953361030990600,-299.87200952148436,-3.2579104935795065,2.045461872243881,0.3027335312798619
1621953361040983600,-299.86201635742185,-1.8323828929260373,0.8646136733084917,0.5416273353338241
1621953361050976800,-299.8520231933594,-0.39513562838435173,-0.46308454449474806,0.14859393992573022
1621953361060969500,-299.8420305175781,0.5656608296111226,-1.3539251304715871,-0.18093670512586832
1621953361070962700,-299.8320373535156,0.22105010432749986,-1.3445043911755084,-0.4736652674809098
1621953361080955600,-299.82204443359376,0.04943199329748749,-0.06887538330554961,-0.2030290022075176
1621953361090948600,-299.81205151367186,0.024718407801538705,1.1656167275339364,0.47845483984500164
1621953361100941600,-299.80205834960935,0.05723989056944847,0.3610498189091682,0.9933370838552713
1621953361110934800,-299.7920651855469,-0.7406269358947872,-2.553681443494558,1.8672391022518275
1621953361120927500,-299.7820725097656,-1.3830826897643507,-3.653218555921316,1.2948844740904868
1621953361130920700,-299.7720793457031,-1.4105696854963898,-2.4048481418550014,-1.239004765958339
1621953361140913700,-299.76208642578126,-1.0108347466230392,-2.2413620454847814,-2.8331559720009563
1621953361150907000,-299.75209301757815,-0.16945581842958926,-3.140494074466824,-1.9256290396392344
1621953361160899600,-299.74210034179686,1.4841931401118635,-3.5878152326405046,0.032411446522176264
1621953361170892800,-299.73210717773435,3.155685213857889,-2.906229391518235,1.7176828931652008
1621953361180885800,-299.7221142578125,3.352623790235817,-1.7137345939308404,2.9585289030760524
1621953361190879500,-299.7121206054687,3.0559289545983073,0.28809038116037844,3.5667920260950923
1621953361200872700,-299.7021271972656,2.820545496752858,0.9499953702569007,3.138213562314212
1621953361210865700,-299.69213427734377,1.6336106713801621,0.9638327569514512,2.3023694718942043
1621953361220858600,-299.68214135742187,-1.4845119968026876,1.9167834698826074,1.3595169591292737
1621953361230851600,-299.6721484375,-1.504307268988341,1.7716086907505988,1.39652596257478
1621953361240844800,-299.6621552734375,-0.9431691774986684,-0.38873277560472486,1.932829326406866
1621953361250837800,-299.6521623535156,-0.6714857412599027,-1.7936340600758789,2.1392739822767672
1621953361260830700,-299.6421691894531,0.6823949655480682,-2.490113518947363,1.9039942770667373
1621953361270823700,-299.63217626953127,-0.680482848316431,-2.960215833249688,0.8729447176717221
1621953361280812800,-299.6221872558594,-2.3006768426321447,-1.9947896696269511,0.08342868145080283
1621953361290805800,-299.6121943359375,-2.3037013050198554,1.7885732695549725,0.152966894312948
1621953361300799000,-299.6022009277344,-1.8949169443808496,5.62450401584208,-0.0446038059560582
1621953361310791700,-299.59220825195314,-1.8830816912889479,6.963288275805115,-0.6701020318165422
1621953361320785000,-299.58221508789063,-0.91121380418092,5.928401037943363,-1.0436928409341721
1621953361330777900,-299.57222216796873,0.26265257304310796,3.9446196690648794,-1.1814083170361815
1621953361340770800,-299.5622292480469,0.49760889151766896,2.0692554202854634,-1.4720181336715816
1621953361350763800,-299.552236328125,0.10427870512008666,0.5537456431508064,-1.8685126293189822
1621953361360757000,-299.5422429199219,-0.3540989768579602,-0.11797346847355365,-2.0942387626335024
1621953361370749700,-299.53225024414064,-0.538041001279652,-0.36342999204397197,-1.7676368645101785
1621953361380743000,-299.52225708007813,-0.4758700840488076,-0.424727049049735,-0.6937881739608943
1621953361390736000,-299.51226416015623,-0.6047817106440663,0.09753858321011066,-0.0862942634823732
1621953361400728600,-299.502271484375,-1.3280121060580015,0.21575404374599455,-0.19203356094062327
1621953361410721800,-299.4922783203125,-1.8068088912084697,1.8110943134427069,-1.0091133296579122
1621953361420714800,-299.48228515625,-1.6944243287831544,3.3130215554267166,-2.0649119842536745
1621953361430708000,-299.4722919921875,-1.4502598908498883,2.1040058311492205,-2.229939464846998
1621953361440700700,-299.46229931640624,-1.0475637640833855,0.020064298385381697,-1.5272686039894818
1621953361450694000,-299.45230615234374,-0.11635025118589401,-0.539169420787692,-0.7504942499145865
1621953361460686800,-299.4423132324219,0.7279828506380319,-1.0407114139705895,-0.04293810123354196
1621953361470679800,-299.4323203125,0.9113397686481475,-1.8124860600620507,0.7974334034830332
1621953361480672800,-299.4223271484375,1.0265060707464813,-1.6523855144768953,1.782646071463078
1621953361490666000,-299.412333984375,1.0394897632211446,-0.891810307791829,2.7394758177846668
1621953361500658700,-299.40234130859375,0.1562567296385765,-0.5131693026125431,3.1088071428269144
1621953361510652000,-299.39234814453124,-0.7404924958601593,-0.7783966945797205,1.9543270185962318
1621953361520644900,-299.3823552246094,-0.6825710527673363,-1.0696037464559078,0.6532436898656189
1621953361530637800,-299.3723620605469,-0.17234657143503426,-1.1683078663140534,-0.05258848456703126
1621953361540630800,-299.362369140625,0.19728899725079535,-1.0444248815357684,-0.026337825696915385
1621953361550624000,-299.3523759765625,0.7191352350547909,-0.9418506422460079,0.12445771592631935
1621953361560616700,-299.34238330078125,1.2326187181830406,-1.053788337686658,0.14856383704841136
1621953361570610000,-299.33239013671874,1.522995456714928,-1.1846522673934698,0.06339300637170672
1621953361580603000,-299.3223972167969,1.746143702365458,-1.3831284286022185,-0.1556242769539356
1621953361590595800,-299.3124040527344,1.6012237747773528,-1.523862594938278,-0.5246412753500044
1621953361600588800,-299.3024111328125,1.0354422413960098,-1.509940452569723,-0.9686062549635768
1621953361610581800,-299.29241821289065,0.21858049934357404,-1.1438257514864205,-1.3252027477256954
1621953361620574700,-299.28242529296875,-0.7493535554468631,-0.6118932962149382,-1.5923033862188458
1621953361630567700,-299.27243237304685,-1.4887863131210206,-0.10270224958360194,-1.5437256716631351
1621953361640561000,-299.26243920898435,-1.7081620544955134,0.35871757656931874,-1.3021448204822839
1621953361650553600,-299.2524462890625,-1.5451343694172799,0.6038941141545772,-1.0211724546335637
1621953361660546800,-299.242453125,-1.2561457242429255,0.6231184545844793,-0.8025266349688172
1621953361670539800,-299.2324602050781,-0.9979743882670998,0.5839484737128019,-0.7751635578773916
1621953361680533000,-299.22246704101565,-0.7727128037244081,0.5379401712536811,-0.8633646961607039
1621953361690525700,-299.21247436523436,-0.5661795927882194,0.46975452377796173,-0.9512428860999643
1621953361700519000,-299.20248120117185,-0.3962824603319168,0.3579565290689468,-0.9873252762198448
1621953361710511900,-299.1924880371094,-0.266682851472497,0.28128888445198535,-0.9463979302868246
1621953361720504800,-299.1824951171875,-0.15588555823862552,0.25046821425259114,-0.8867349042236804
1621953361730498800,-299.1725012207031,0.08100552769079804,0.2551034728378057,-0.920659239526838
1621953361740491800,-299.16250830078127,0.4676071364857256,0.36929099303185936,-1.1333331451751292
1621953361750484700,-299.15251538085937,-0.05349076716899871,0.3534720771312713,-0.5182204485222697
1621953361760477700,-299.14252221679686,-0.545055556216836,0.3407248237609863,0.05367839869558811
1621953361770471000,-299.13252905273436,-0.7030313647329807,0.34852059220373627,0.3302686039373278
1621953361780463900,-299.1225361328125,-0.5892869121313095,0.3335094855546951,0.49398836293295023
1621953361790456800,-299.1125432128906,-0.3884399301379919,0.32222704403996466,0.6068482877850532
1621953361800449800,-299.1025502929688,-0.2798631624978036,0.3106003191322088,0.7477158712424338
1621953361810443000,-299.0925568847656,-0.15955935138054192,0.31477672803401946,0.958698901194334
1621953361820435700,-299.08256420898437,-0.014790157374739646,0.17838555933833122,1.087997042889148
1621953361830429000,-299.07257104492186,0.0050468350607901806,-0.043237668702006335,1.0695637067064643
1621953361840422000,-299.062578125,0.07448566093537956,-0.15399930610060691,0.9247909325040876
1621953361850414800,-299.0525852050781,0.14473057902846484,-0.3304682181626558,0.8174658454254269
1621953361860407800,-299.0425922851563,0.23866726528909055,-0.6114414607942104,0.7679520190633833
1621953361870401000,-299.0325988769531,0.33887188937067986,-0.8237298742562532,0.7424510825820266
1621953361880393700,-299.02260620117187,0.41130821656081823,-0.9747124628841877,0.6911604558058083
1621953361890387000,-299.01261303710936,0.28036884699761866,-0.9854659120887518,0.6925615547753871
1621953361900380000,-299.0026201171875,0.0801350649992004,-0.7745844428151846,0.6812478413395583
1621953361910372600,-298.9926274414062,-0.05329431301513687,-0.444516622146964,0.5828470883421599
1621953361920365800,-298.9826342773438,-0.09600534576084464,-0.19307517894804477,0.44671150184273717
1621953361930358800,-298.97264111328127,-0.0695797139163129,-0.12938099767267702,0.2977303161650896
1621953361940351700,-298.96264819335937,-0.05947681930866092,-0.2771130600720644,0.15918825304582715
1621953361950344700,-298.9526552734375,-0.0897784523363225,-0.5231944375425577,0.06023088907897472
1621953361960338000,-298.942662109375,-0.1121112984418869,-0.6558458351880312,0.014545827224850654
1621953361970330600,-298.93266943359373,-0.1546662455767393,-0.6921995895951986,0.0049663902357220645
1621953361980323800,-298.9226762695312,-0.21068857704997063,-0.6042500879853964,0.02396247486770153
1621953361990316800,-298.9126831054688,-0.2102005012720823,-0.4204629618644714,0.010877367845177649
1621953362000309800,-298.9026901855469,-0.2316425177514553,-0.259532395195961,-0.01615852311849594
1621953362010302700,-298.892697265625,-0.2557283450041897,-0.1309860947817564,0.027478812425583598
1621953362020296000,-298.8827041015625,-0.2714987273216247,-0.013459201031923293,0.09178162711858749
1621953362030288600,-298.87271142578123,-0.3318599647819996,0.04303659317195415,0.12150441907867789
1621953362040281900,-298.8627182617187,-0.3865782279193401,0.031930092746019365,0.20177856375500558
1621953362050274800,-298.8527250976563,-0.45064767224788665,-0.02384381692409515,0.2899609242726117
1621953362060268000,-298.84273193359377,-0.5200211047360673,-0.0334621246188879,0.34363691181540484
1621953362070260700,-298.8327392578125,-0.5613397515416145,-0.007055763730406761,0.4165162700653076
1621953362080254000,-298.82274609375,-0.5334791001915932,0.08010112619698047,0.571997704482451
1621953362090247000,-298.8127531738281,-0.41411980338282883,0.31520401353538036,0.672125646598637
1621953362100240000,-298.8027600097656,-0.2208371191639453,0.6113502753794193,0.7568040175832808
1621953362110232800,-298.7927670898438,-0.10384762022644281,0.8142132733702659,0.7948970168732106
1621953362120225800,-298.7827741699219,-0.2080697728537023,0.8993103081583976,0.8333397063836455
1621953362130218800,-298.77278125,-0.49007718083858487,0.8170686628013849,0.8902003883771598
1621953362140211700,-298.76278833007814,-0.7657166612267494,0.7144441546291113,0.88792002235502
1621953362150205000,-298.75279516601563,-0.9753611360512673,0.7036351758450269,0.8755588456928729
1621953362160197600,-298.74280224609373,-1.0681975329197944,0.6372253058701753,0.8466131755851208
1621953362170190800,-298.7328090820312,-1.0406316267326474,0.5940653785794973,0.8347675472296774
1621953362180183800,-298.7228161621094,-0.9802959621049463,0.6104606330633163,0.821757112878561
1621953362190177800,-298.712822265625,-0.9539724571943282,0.6300497151523828,0.8054695565529167
1621953362200170800,-298.70282934570315,-0.968815659930557,0.6304957053542137,0.7949306268818676
1621953362210163700,-298.69283618164064,-1.014538131185621,0.5303203438997268,0.7817400136582553
1621953362220157000,-298.68284301757814,-1.0919698920428753,0.33723639712333675,0.7941434220269322
1621953362230149600,-298.6728503417969,-1.111816894415766,0.11910627189576625,0.8403712124556303
1621953362240142800,-298.6628571777344,-1.1181482893943786,-0.05796703580021858,0.9206126239061355
1621953362250135800,-298.6528642578125,-1.123518876516819,-0.17352292173802852,1.0078582150302826
1621953362260128800,-298.6428713378906,-1.1191807011820376,-0.22979250597059725,1.0880592944703995
1621953362270121700,-298.63287817382815,-1.1223650303065775,-0.18476620028614996,1.158795064820349
1621953362280114700,-298.62288525390625,-1.1272321979515254,-0.036921909683942794,1.1934678804032504
1621953362290107400,-298.612892578125,-1.1050818870723247,0.18538637801110744,1.226184447351843
1621953362300100600,-298.6028994140625,-1.0671617601312697,0.3983592666059732,1.256822746721655
1621953362310093600,-298.5929064941406,-1.029517673652619,0.5481359865754842,1.285994334539771
1621953362320086800,-298.5829133300781,-0.9862287131547928,0.5999994448035955,1.2770705849803983
1621953362330079500,-298.57292041015626,-0.9834069337323308,0.5350637390345334,1.2487635050371289
1621953362340072700,-298.56292724609375,-1.0034254932798445,0.3998199868083,1.1856322914067654
1621953362350065700,-298.55293432617185,-1.0236989043712614,0.20097148515582083,1.075037023551017
1621953362360058600,-298.54294140625,-1.0640540033742785,0.046344402545690534,0.9500302223745732
1621953362370051600,-298.5329484863281,-1.0762862929597496,-0.012715104666352272,0.8091746216159313
1621953362380044800,-298.522955078125,-1.0515411432817579,-0.023415946900844573,0.6667950261604041
1621953362390037500,-298.51296240234376,-1.0403485720075667,0.04426233557462692,0.5516697867248207
1621953362400030700,-298.50296923828125,-1.0082692800492048,0.14683131416738032,0.4953423713577911
1621953362410023700,-298.49297631835935,-0.9648781743511557,0.19912322694063186,0.45291481346227225
1621953362420016600,-298.4829833984375,-0.9289877996720373,0.19650281530916688,0.42697986947782335
1621953362430009600,-298.4729904785156,-0.9278799845606088,0.12474807717502116,0.3953576005719602
1621953362440002600,-298.46299755859377,-0.9317666167356073,0.003762567403912544,0.3658624068226665
1621953362449995500,-298.45300439453126,-0.8864569640651345,-0.12075403910279273,0.3668217533741146
1621953362459988500,-298.44301147460936,-0.8300064703077077,-0.22716098842322824,0.34569453846495596
1621953362469981700,-298.43301831054686,-0.719386871728301,-0.3300187208294868,0.3535784601151943
1621953362479974400,-298.4230256347656,-0.5819575921565294,-0.4250204790383577,0.37397308643348515
1621953362489967600,-298.4130324707031,-0.4341001498118043,-0.4851040686011314,0.3918673838360235
1621953362499960600,-298.4030393066406,-0.2483361706599593,-0.4915829092264175,0.3771369572918862
1621953362509953500,-298.39304638671877,-0.08606587982028722,-0.4962409641653299,0.3407339203828946
1621953362519946500,-298.38305346679687,0.09278203633278607,-0.4982908824324608,0.30882582027297467
1621953362529939700,-298.37306030273436,0.37966801013946533,-0.5058896669983863,0.2794689755484462
1621953362539932400,-298.3630676269531,0.9422560081765055,-0.5202122068613767,0.20351751637682317
1621953362549925600,-298.3530744628906,1.4207432889863847,-0.5233621953248977,0.10220482145547866
1621953362559918600,-298.3430812988281,1.8635715196549891,-0.5161503642499446,0.06423822502419352
1621953362569911800,-298.3330881347656,2.2575147233843804,-0.42325405388772486,0.02639204010218382
1621953362579905500,-298.3230944824219,2.593100138430297,-0.2739624870866537,-0.020493995039537548
1621953362589898500,-298.3131015625,2.8364775176391004,-0.16049918951392173,-0.10901165192611514
1621953362599891700,-298.3031083984375,2.9489725547015664,-0.10491992563307284,-0.19929463798478245
1621953362609884400,-298.29311547851563,2.915737224575877,-0.12727554982602596,-0.30280564666800197
1621953362619877600,-298.2831223144531,2.7326170379310843,-0.21677052731215954,-0.44103316394537684
1621953362629870600,-298.2731293945312,2.2981296423673627,-0.32405835112035275,-0.5543075878825038
1621953362639863600,-298.2631364746094,1.7458555330738423,-0.38740065021812914,-0.6410557508785277
1621953362649856500,-298.2531435546875,1.2731737236723304,-0.42252223248183723,-0.6677538612551986
1621953362659849700,-298.243150390625,0.8882061458200216,-0.39083413179814813,-0.6574784048259258
1621953362669842700,-298.2331572265625,0.583996696768701,-0.3619645956665277,-0.6592008447043597
1621953362679835600,-298.2231643066406,0.37468116163760423,-0.3107429424732923,-0.6370977339677513
1621953362689828600,-298.2131713867187,0.21596739423573016,-0.26277532263994213,-0.6213751911137253
1621953362699821800,-298.2031782226563,0.12542086187005042,-0.20172961004674433,-0.6400823758017271
1621953362709814500,-298.193185546875,0.21402590477913616,-0.12541092499792575,-0.6738838884428143
1621953362719807700,-298.18319213867187,0.46849107971340415,0.024777882903814313,-0.7404385006505996
1621953362729800700,-298.17319921875,0.5871750345438719,0.20807284159362316,-0.8188940515976398
1621953362739793700,-298.16320629882813,0.44283524493128057,0.37517069872021674,-0.9313283714488149
1621953362749786600,-298.15321337890623,0.08865794214010238,0.5001011467248201,-1.0412041659235953
1621953362759779600,-298.1432204589844,-0.2926049359753728,0.5672457607150078,-1.082674751887843
1621953362769772500,-298.1332275390625,-0.5921104451194406,0.5919125844597816,-1.064738989963755
1621953362779765500,-298.123234375,-0.7636383936479687,0.5419540830701589,-0.9807621913772075
1621953362789758700,-298.1132412109375,-0.7819070407882333,0.43078269582688805,-0.8922166966356336
1621953362799751400,-298.10324853515624,-0.6624126463577151,0.1890869860947132,-0.7792258388802409
1621953362809744600,-298.09325537109373,-0.4547957318380475,-0.03366553823649883,-0.6466683300632983
1621953362819737600,-298.0832624511719,-0.27605419866889713,-0.11307283695042132,-0.46695722120963035
1621953362829730600,-298.07326953125,-0.1451940683543682,-0.05685995134115219,-0.2831424764294177
1621953362839723500,-298.0632763671875,-0.04871200845986604,0.08329904545545577,-0.11089023221433163
1621953362849716700,-298.053283203125,0.03970744874924421,0.19928806211352348,0.031426892464235426
1621953362859709400,-298.04329052734374,0.12247282571941613,0.27204408624470233,0.13759703735411166
1621953362869702700,-298.03329736328124,0.1998898273989558,0.274098096165061,0.20937800590805708
1621953362879695600,-298.0233044433594,0.28405542655587196,0.21515257072150706,0.26985958181247116
1621953362889689600,-298.0133103027344,0.32087299908250566,0.119461076682806,0.3269879748314619
1621953362899682600,-298.0033173828125,0.32409955991357564,0.0477314729899168,0.3642570905178785
1621953362909675500,-297.9933244628906,0.2933721209555864,0.00851239227950573,0.38285380056872964
1621953362919668700,-297.98333129882815,0.22797113576233385,-0.026074936977028847,0.3881587020438164
1621953362929661400,-297.97333862304686,0.1532525793865323,-0.06659516341388225,0.3641318567030132
1621953362939654700,-297.96334545898435,0.05900251632779836,-0.11428162821829319,0.30794556683972474
1621953362949647600,-297.9533522949219,-0.048598318952322,-0.13014262969493864,0.21725385384969412
1621953362959640600,-297.943359375,-0.16015899777412412,-0.1087169798284769,0.12880056743621826
1621953362969633500,-297.9333664550781,-0.28636282671540975,-0.06757131496965885,0.07017601757533848
1621953362979626800,-297.92337329101565,-0.3741846102923155,0.006759411132335662,0.0677748747177422
1621953362989619500,-297.91338061523436,-0.4327636405110359,0.10036065489351749,0.1461290111169219
1621953362999612700,-297.90338720703124,-0.4232908787667751,0.20880758560895918,0.3276692350938916
1621953363009605600,-297.8933942871094,-0.4191106704726815,0.23832652556002137,0.6058861647546291
1621953363019598800,-297.8834011230469,-0.42343087175935507,0.1832826837301254,0.8942947450187057
1621953363029591600,-297.8734084472656,-0.43025078090727326,0.056931263011693954,1.1260527789086103
1621953363039584500,-297.86341552734376,-0.45631870362162585,-0.07228256140053271,1.292583065280318
1621953363049577700,-297.85342236328125,-0.47509003958702084,-0.14710077875852584,1.4138906466126442
1621953363059570400,-297.8434296875,-0.4996840903565287,-0.17171791814267634,1.4621239316448569
1621953363069563600,-297.83343627929685,-0.47181876283138985,-0.10235679714679717,1.4734782693520188
1621953363079556600,-297.823443359375,-0.3934934141352773,0.03051321168541908,1.5018809186242519
1621953363089549600,-297.8134504394531,-0.2755328051432967,0.19288053315877912,1.4752711441181598
1621953363099542500,-297.80345751953126,-0.21927783395797013,0.32558979847133157,1.3160332067117093
1621953363109535700,-297.79346435546876,-0.22224632837474345,0.3926081557333469,1.1261862690951674
1621953363119528400,-297.78347143554686,-0.26259908929020165,0.4246896396487951,0.8928239418137818
1621953363129521700,-297.77347827148435,-0.35161943500190973,0.4023217404961586,0.6794012636248022
1621953363139514600,-297.7634853515625,-0.4570616309434175,0.2807154684782028,0.5140966465905309
1621953363149507600,-297.7534924316406,-0.5216942621126771,0.09488076217770576,0.3998546197302639
1621953363159501600,-297.7434985351563,-0.5517258277609944,-0.09422200600802898,0.3708513011511415
1621953363169494500,-297.73350537109377,-0.5472945673152804,-0.278833307993412,0.44751697300672527
1621953363179487700,-297.72351220703126,-0.5030372001767158,-0.4105173219114542,0.5582352827202528
1621953363189480400,-297.71351953125,-0.42442017505764956,-0.5087970788776874,0.7269539459817111
1621953363199473700,-297.7035263671875,-0.3401718660533428,-0.5681733969539403,0.9254911166626959
1621953363209466600,-297.6935334472656,-0.2126496479898691,-0.5982675064444541,1.2055136344406754
1621953363219459600,-297.6835405273437,-0.09312266646400094,-0.6496662697702645,1.4889938183918594
1621953363229452500,-297.6735473632813,-0.0009045476242899894,-0.729082920834422,1.7817942769393325
1621953363239445800,-297.66355419921877,0.07293693365603685,-0.8303460775256156,2.0374585985302924
1621953363249438500,-297.6535615234375,0.13288739835843444,-0.8812304615885018,2.223732573030889
1621953363259431700,-297.643568359375,0.18374124115258456,-0.9329629869133234,2.375958585848659
1621953363269424600,-297.6335754394531,0.20910086946710943,-0.9880313786625862,2.5077304241806266
1621953363279417600,-297.6235825195312,0.18575185032263397,-1.0331354257583618,2.5421441504359246
1621953363289410600,-297.6135893554688,0.06572948649525642,-1.0422878695070743,2.552454532048106
1621953363299403800,-297.60359619140627,-0.012809212690591812,-0.9401748179882764,2.6148905299559235
1621953363309396500,-297.593603515625,-0.06357946885451674,-0.7662742951095104,2.6794705541551114
1621953363319389700,-297.5836103515625,-0.1642659947015345,-0.49039632979035375,2.6597569689035416
1621953363329382700,-297.5736174316406,-0.24804902428165077,-0.16937866154015063,2.6116695220828055
1621953363339375600,-297.5636242675781,-0.290285406986624,0.1616080275386572,2.548801270237565
1621953363349368600,-297.5536313476563,-0.33346856902241706,0.5222849214822054,2.4800875072345137
1621953363359361500,-297.5436384277344,-0.4554806453622877,0.9106658149093388,2.4248775150574744
1621953363369354500,-297.5336455078125,-0.6899883432865143,1.2476526211857795,2.353063009560108
1621953363379347500,-297.52365258789064,-1.0383704038023949,1.5208780261695385,2.247175407938659
1621953363389341700,-297.513658203125,-1.3990614724017678,1.6501795288652181,2.1341129462517796
1621953363399334700,-297.50366528320313,-1.7831671727277338,1.583509546649456,1.990270730897784
1621953363409327600,-297.49367236328123,-2.1987525916837156,1.4662187997430562,1.754861700219661
1621953363419320600,-297.4836794433594,-2.7125018861413,1.4752970092117785,1.3336129948049782
1621953363429313500,-297.4736865234375,-3.403955041283369,1.5275263781428337,0.6111202660158276
1621953363439306500,-297.46369360351565,-4.023333140295744,1.5418775595784187,-0.3130450819358229
1621953363449299500,-297.45370043945314,-4.311484896254539,1.4682096812993288,-1.1397694618329406
1621953363459292700,-297.44370727539064,-4.101754935103655,1.3047417051076888,-1.7618889685079455
1621953363469285400,-297.4337145996094,-3.373047861844301,1.1043570799291134,-2.0729320629715917
1621953363479278600,-297.4237214355469,-2.5013000988721847,0.8698515739619731,-2.102033362032473
1621953363489271600,-297.413728515625,-1.7758982046380638,0.6531915212869643,-1.9741934563219545
1621953363499264500,-297.4037355957031,-1.210085545466095,0.4662438853085041,-1.6958084766179322
1621953363509257500,-297.39374243164065,-0.7686895395576954,0.3195189541250467,-1.2211726105391978
1621953363519250700,-297.38374926757814,-0.48828627883382136,0.23132336879968643,-0.6757257169172167
1621953363529243400,-297.37375659179685,-0.38425073481984434,0.16038754583299158,-0.24565526101291177
1621953363539236600,-297.3637634277344,-0.3815314659237861,0.022480711877346037,0.0752116005897522
1621953363549229600,-297.3537705078125,-0.3751941526610404,-0.20332360123991966,0.3004422054722905
1621953363559222500,-297.3437775878906,-0.2510346159636974,-0.5107973127841949,0.410092374497652
1621953363569215500,-297.33378442382815,-0.07058569435477256,-0.8216524834603071,0.43087329671978947
1621953363579208700,-297.32379125976564,0.09230046336092054,-1.0140361730128526,0.42472851035445924
1621953363589201400,-297.31379858398435,0.2648678379397839,-1.0663555583149193,0.421316071562469
1621953363599194600,-297.3038054199219,0.4199614420831203,-1.076986842444539,0.3996490141555667
1621953363609188600,-297.29381127929685,0.4316027069728821,-1.1278361551940441,0.3485498182982206
1621953363619181600,-297.283818359375,0.2999298720359802,-1.20721831946671,0.24903935049325227
1621953363629174500,-297.2738254394531,0.1299357089459896,-1.380708507978916,0.0510927661165595
1621953363639167500,-297.26383251953126,-0.08560447285361587,-1.5014561173409222,-0.1629407374471426
1621953363649160700,-297.25383935546876,-0.2822446508068591,-1.4457137718528508,-0.30779841345399617
1621953363659153400,-297.2438466796875,-0.4502992972016334,-1.2665735947549341,-0.40960985167771574
1621953363669146600,-297.23385327148435,-0.6081658001244068,-1.1542957075744866,-0.5280009610414504
1621953363679139600,-297.2238603515625,-0.7249240475893021,-1.1555156047582626,-0.6514835483253002
1621953363689132500,-297.2138674316406,-0.8204267410576344,-1.186183130222559,-0.773259331691265
1621953363699125500,-297.20387451171877,-0.9596352321963757,-1.304682083874941,-0.8926520193129778
1621953363709118700,-297.19388134765626,-1.1374901187241078,-1.5039292294561861,-0.9921396907642483
1621953363719111700,-297.18388842773436,-1.3437971196889877,-1.6864871060431001,-1.0450888984024524
1621953363729104600,-297.17389526367185,-1.4711246919631957,-1.835839463120699,-1.037235846814513
1621953363739097600,-297.16390234375,-1.4910171409130095,-1.937176269569993,-0.9333695218876004
1621953363749090600,-297.1539094238281,-1.339835230320692,-1.9741174684762954,-0.7136570959046482
1621953363759083500,-297.14391650390627,-1.1293126574873924,-1.9533833080053329,-0.40716830374449486
1621953363769076500,-297.13392358398437,-0.908828662610054,-1.8735025465607642,-0.05991086334437132
1621953363779069700,-297.12393041992186,-0.6732254245340824,-1.7544535578101872,0.33298107776641844
1621953363789062400,-297.1139375,-0.45223874083161353,-1.6572656877338885,0.74316756028831
1621953363799056600,-297.103943359375,-0.22483755044434217,-1.5090566554725169,1.1900009349450469
1621953363809049600,-297.0939504394531,0.0014507102649658917,-1.2105991940766572,1.7076543972343206
1621953363819042600,-297.0839575195312,0.19683179153520614,-0.854540023061633,2.279953057424724
1621953363829035500,-297.0739645996094,0.25918164552953094,-0.4831213703513145,2.890352023428678
1621953363839028500,-297.0639714355469,0.10174071107506752,-0.058929158830642696,3.5047552566379307
1621953363849021700,-297.05397827148437,-0.3004792495470494,0.37832010266184807,4.0723377019613975
1621953363859014400,-297.04398559570313,-0.9742718064446002,0.7969500038802624,4.581924762172997
1621953363869007600,-297.0339924316406,-1.8527485123455523,1.0214929187595843,5.032636439567804
1621953363879000600,-297.0239995117187,-2.8101883533895013,1.0272972211241722,5.321334138971567
1621953363888993500,-297.0140063476563,-3.6110499777555463,0.766937142932415,5.341202038002014
1621953363898986500,-297.0040134277344,-3.9676819802224634,0.275263632813096,5.043135621750355
1621953363908979700,-296.99402026367187,-3.717400228452682,-0.37972353971898554,4.544544295066594
1621953363918972400,-296.98402758789064,-3.059629562681913,-0.9387462464898824,3.877994402773678
1621953363928965600,-296.97403442382813,-2.294126836466789,-0.7000894660621881,3.2336452363729475
1621953363938958600,-296.96404150390623,-1.5263959128081797,1.020506830331683,2.867737456038594
1621953363948951600,-296.9540483398437,-0.9482079023182391,3.5506121679276226,2.5364649357557294
1621953363958944500,-296.9440554199219,-0.3984403690181672,5.898219250169396,2.183714743158221
1621953363968937700,-296.9340622558594,0.2882791817307472,7.550791811650991,1.978614779895544
1621953363978931700,-296.924068359375,0.5779492332980036,7.411856219169497,1.7123729501888154
1621953363988924400,-296.91407568359375,0.09169979405403136,5.165552041107416,1.1433858987644314
1621953363998917600,-296.90408227539064,-0.48535322105661033,2.1162509802162646,0.0691965780839324
1621953364008910600,-296.89408935546874,-0.8040317788347602,-0.4998083012580871,-1.3009627710908651
1621953364018903600,-296.8840964355469,-0.931954686653614,-2.358359946924448,-2.4195535435557365
1621953364028896500,-296.874103515625,-1.0196960984706878,-3.5602883432894945,-3.2206665123343465
1621953364038889700,-296.8641103515625,-1.2690671651363372,-4.132083437871933,-3.74278659864366
1621953364048882400,-296.85411767578125,-1.6593045000851154,-4.232247108888626,-3.9695656020119783
1621953364058875600,-296.84412426757814,-1.8261293854892253,-3.7001673541009423,-4.167307603727281
1621953364068868600,-296.83413134765624,-1.7381484658278523,-2.658724703246355,-4.414995831872522
1621953364078861600,-296.8241384277344,-1.637153604684025,-1.4198247128367423,-4.617517761340737
1621953364088854500,-296.8141455078125,-1.4617314251959324,-0.1466021815866232,-4.793844634583592
1621953364098847700,-296.80415234375,-0.9429293773934244,0.9869476750791072,-4.9412581325531
1621953364108840400,-296.79415966796876,-0.08404957156181335,1.8049153325468301,-4.9220688634365795
1621953364118833700,-296.78416625976564,1.0355448249876498,2.1362778692007063,-4.60440109013617
1621953364128826600,-296.77417333984374,2.207505368590355,1.9403776959598062,-3.926954833036661
1621953364138819600,-296.7641804199219,3.2491584473252293,1.429279354402423,-2.943748390312493
1621953364148812500,-296.7541875,3.8963326080188154,0.7737836478263139,-1.9047832354873417
1621953364158806500,-296.744193359375,3.9621892280250783,0.012256254982948302,-1.081994733734429
1621953364168799700,-296.7342001953125,3.44788332259804,-0.7497387553721666,-0.5051283272370696
1621953364178792400,-296.72420751953126,2.647933552379906,-1.2540800238847731,-0.04393149618506431
1621953364188785700,-296.71421435546876,1.9849173871710895,-1.5290665933221577,0.3704264268025756
1621953364198778600,-296.70422143554686,1.5027353434965014,-1.7045289586901664,0.7318608611151576
1621953364208771600,-296.694228515625,1.1259455191418528,-1.7491560359239577,1.0015241897031664
1621953364218764500,-296.6842353515625,0.918116423176229,-1.5370143374562262,1.166398817822337
1621953364228757500,-296.6742424316406,0.8249076858639717,-1.1282862370491027,1.3529346581295132
1621953364238750500,-296.66424951171877,0.7597080684617161,-0.6383353129386902,1.6400480109512805
1621953364248743400,-296.65425659179687,0.6354267320156097,-0.1860726067095995,2.0504171565636993
1621953364258736600,-296.64426342773436,0.5206090972244739,0.1816717414021492,2.4772142898857594
1621953364268729300,-296.6342707519531,0.45688364402800796,0.26382863108515736,2.7712840377166867
1621953364278722600,-296.62427734375,0.48721010096967216,-0.061087213647365565,2.9230870028167963
1621953364288716000,-296.6142839355469,0.4792199789986014,-0.5309937131166458,2.955359333129227
1621953364298709200,-296.6042907714844,0.2740884515538812,-0.9579559738725423,2.8824960492312908
1621953364308702000,-296.59429809570315,-0.04764817862063646,-1.3163169920891522,2.5886659553751348
1621953364318695200,-296.58430493164065,-0.519053684476018,-1.5510446163743734,2.146190045275539
1621953364328689200,-296.57431079101565,-1.0980328453436494,-1.7643617883622644,1.6293978759907186
1621953364338682000,-296.56431787109375,-1.4968465777188538,-1.8236609495490788,1.2494468111261725
1621953364348675000,-296.55432495117185,-1.4890817889362573,-1.5727555129230022,1.057844335079193
1621953364358668000,-296.54433203125,-1.1049699511304496,-1.198576163327694,1.0381411250911652
1621953364368661200,-296.5343388671875,-0.7519564314216375,-0.782166860768199,1.1441757339678704
1621953364378654000,-296.5243459472656,-0.55328182503134,-0.40566520570516584,1.2659101624101399
1621953364388647200,-296.51435278320315,-0.19576807129383086,-0.127961778524518,1.2504539423421024
1621953364398640000,-296.50435986328125,0.03213116827607155,0.05886603046655654,1.175231528097391
1621953364408633000,-296.49436694335935,-0.020741174733638762,0.17730419384241103,1.0624860234051943
1621953364418626000,-296.4843740234375,-0.11669745718836784,0.2348310846596956,0.918478972878307
1621953364428619300,-296.4743806152344,-0.1150344924122095,0.20548457866609096,0.6787376120842993
1621953364438612000,-296.4643879394531,-0.13380758194327352,0.061465983831882474,0.42077787303254005
1621953364448605200,-296.4543947753906,-0.2003448776900768,-0.13430910172462462,0.2377041558779776
1621953364458598100,-296.44440185546875,-0.3746393683224916,-0.28107845657169817,0.11793591294214129
1621953364468590800,-296.4344091796875,-0.5820408865258098,-0.3192459824025631,0.11537483028247952
1621953364478584000,-296.424416015625,-0.8338172607675194,-0.273922739598155,0.2709920929737389
1621953364488578000,-296.414421875,-0.9796937584280967,-0.07879822690486908,0.5074035786926746
1621953364498571300,-296.4044287109375,-1.011456093391776,0.2010778681397438,0.7194374328717589
1621953364508564000,-296.3944360351563,-1.0657961708664894,0.4952051913768053,0.9336853098385035
1621953364518557200,-296.38444287109377,-1.104290444433689,0.7261503745138644,1.1352420475363731
1621953364528550100,-296.37444995117187,-1.1515829414844512,0.8665700680732726,1.3095626955233513
1621953364538543000,-296.36445678710936,-1.1682149273335933,0.9698802204221486,1.507515417379886
1621953364548536000,-296.3544638671875,-0.9688935474723577,1.2240198166638612,1.7846781618125735
1621953364558529000,-296.3444709472656,-0.5850251630336046,1.6827379826426505,2.210401090031862
1621953364568522000,-296.3344780273438,-0.625028672119975,2.011039378160238,2.7075328655570745
1621953364578515000,-296.3244851074219,-1.5067761433199047,1.8502900132775306,3.2270284485816956
1621953364588508200,-296.31449194335937,-2.2978695301264525,1.4065759396851063,3.703476624779403
1621953364598500900,-296.3044990234375,-2.5715304039180276,1.1082792218089104,4.116708174085617
1621953364608494000,-296.294505859375,-2.652372411610186,0.8713105405986309,4.629899688529968
1621953364618487000,-296.2845129394531,-2.54834417411983,0.5596896462470293,5.103119842591881
1621953364628480000,-296.2745200195312,-2.357097379642725,0.4902531219273805,5.586175161969662
1621953364638473000,-296.2645270996094,-2.274820370711386,0.7633160298258066,6.151183957412838
1621953364648467000,-296.2545329589844,-2.233881626601517,1.0051789128184319,6.793755300486088
1621953364658460200,-296.2445397949219,-2.142939957438409,0.9060381551086902,7.426442962926626
1621953364668452900,-296.23454711914064,-1.9411127322360873,0.442362658983469,7.949200178095698
1621953364678446000,-296.22455395507814,-1.566578870114684,-0.14911445666849613,8.02040020495653
1621953364688439000,-296.21456103515624,-1.3115680439963937,-0.6077765085458755,7.529213601571321
1621953364698432000,-296.2045681152344,-1.4410316053859888,-0.8429150517195463,6.313395796063542
1621953364708425000,-296.1945749511719,-1.702621956025064,-0.8317828323304652,4.7611543711200355
1621953364718418200,-296.1845817871094,-1.7360615765511989,-0.5008084182113409,3.2800261715367434
1621953364728411000,-296.17458911132815,-1.5441386363781988,0.11939794831871986,2.1081702573522922
1621953364738404000,-296.16459594726564,-1.1725311100322753,0.866804461351037,1.3220526131317019
1621953364748397000,-296.15460302734374,-0.8393396043855696,1.7801906411349773,0.9078516342714429
1621953364758390000,-296.14460986328123,-0.5726584334135055,2.803005163887143,0.6657672174826264
1621953364768383000,-296.1346169433594,-0.2768237217366695,3.797538179528713,0.40217707132846114
1621953364778376200,-296.1246237792969,0.11303118976578115,4.811857261136174,0.07095248184055089
1621953364788369200,-296.114630859375,0.605103928335756,5.816974214634299,-0.3218134948030114
1621953364798363000,-296.10463720703126,1.0744295591771602,6.702903647693991,-1.0942144560992717
1621953364808356000,-296.09464379882814,1.1431764937974511,6.560999853056669,-2.252742394416034
1621953364818349000,-296.08465087890625,0.9477578204631805,5.444023530051112,-3.41997269462645
1621953364828342000,-296.0746579589844,1.2393255223453044,4.474700358989835,-4.2699689367786045
1621953364838335000,-296.0646650390625,1.475674610352516,3.6137072142660616,-4.673455337139964
1621953364848328200,-296.054671875,1.5555132862210272,2.459896075338125,-4.839043958747387
1621953364858321000,-296.04467919921876,1.716822769204527,1.1093564956516027,-4.912039636853337
1621953364868314000,-296.03468579101565,2.0224913310229775,-0.07133446689546108,-4.809043665020168
1621953364878307000,-296.02469287109375,2.2660800148949027,-0.7092138527601957,-4.64779102679044
1621953364888300300,-296.01469970703124,2.1812088978171347,-0.9895610724478959,-4.495404124322533
1621953364898293000,-296.00470703125,1.952092683672905,-1.1804770275354384,-4.2276077586501835
1621953364908286200,-295.9947138671875,1.8258441388070583,-1.1978361586153508,-3.8874037438929077
1621953364918279200,-295.9847209472656,1.6305682349443436,-1.187353927567601,-3.4963910406574605
1621953364928272100,-295.97472778320315,1.4290472992122172,-1.2282318814009427,-3.137631963033974
1621953364938265000,-295.96473486328125,1.1078361542165278,-1.2738771957665682,-2.7803721840575335
1621953364948258000,-295.95474194335935,0.7532102308750153,-1.4265116432547569,-2.4744737590059636
1621953364958252000,-295.944748046875,0.49497898140549657,-1.647395451104641,-2.2281848762646317
1621953364968245000,-295.9347551269531,0.3761924429833889,-1.8458511540472506,-2.1154186210453507
1621953364978238200,-295.92476171875,0.44269236586187033,-1.9982669903486965,-2.2003712789267302
1621953364988231200,-295.9147687988281,0.5435930824488401,-2.056333394870162,-2.5639421407461165
1621953364998224100,-295.90477587890626,0.7571154216200113,-1.9095570257604122,-3.2605349968641995
1621953365008217000,-295.89478295898436,0.9492530274569988,-1.811993308109045,-4.060040530446171
1621953365018210000,-295.8847900390625,1.092455045211315,-1.981663646072149,-4.721685407301783
1621953365028203000,-295.874796875,1.2682552642315625,-2.291786410820484,-5.342416089966893
1621953365038196000,-295.8648039550781,1.4498475106567144,-2.721264453789592,-5.861800613832473
1621953365048189200,-295.8548107910156,1.5161574273884295,-3.2015660905450583,-6.191130183354019
1621953365058182000,-295.8448181152344,1.2617647331684827,-3.6090766318559644,-6.282044964510202
1621953365068175000,-295.83482495117187,1.1204910531282424,-3.802620597359538,-6.23270196467042
1621953365078168000,-295.82483203125,0.9738567228376864,-3.606239362603426,-6.010373803231119
1621953365088161000,-295.8148388671875,0.2113391864458099,-3.1377778012454507,-5.529318717759847
1621953365098154000,-295.8048459472656,-0.7927753485441208,-2.5954414408594366,-4.976815183624625
1621953365108148200,-295.7948518066406,-1.675982078641653,-1.6817086395949123,-4.195458470195532
1621953365118141200,-295.7848588867187,-2.5433172858685253,-0.6209791044682264,-2.8131144699692725
1621953365128134000,-295.7748662109375,-3.4675580371439456,0.485188824275136,-0.7090384961932897
1621953365138127000,-295.7648728027344,-4.503509689366817,1.6371704096883535,1.999403885424137
1621953365148120000,-295.7548798828125,-5.656745658755302,2.7671885850965974,5.335728575026988
1621953365158113000,-295.74488696289063,-6.045932023346424,2.961713378331065,8.288736084333062
1621953365168106000,-295.73489404296873,-5.778548330128192,2.4967250460416075,10.913568454849718
1621953365178099200,-295.7249008789062,-4.307402595376968,1.8714058665424584,13.357197285997866
1621953365188092000,-295.714908203125,-2.3719956735670564,1.1854624147325754,15.099427906572817
1621953365198085000,-295.7049147949219,-0.7920785984516143,0.5905477258473635,15.214819541859626
1621953365208078000,-295.694921875,0.08009937263131141,-0.3101473146677017,12.508768439292908
1621953365218071000,-295.68492895507814,0.01439911223053932,-1.3832166914075612,7.107242573231458
1621953365228064000,-295.67493603515624,0.34036947098467496,-1.958556326729059,2.1409680728435516
1621953365238057200,-295.66494287109373,1.0803285540878773,-2.3110978450119495,-0.6879349178880453
1621953365248050000,-295.6549501953125,1.5122808782160282,-2.329407993206382,-2.30225636690855
1621953365258044000,-295.6449560546875,1.367726276808977,-1.4470733697682618,-3.132238871818781
1621953365268037000,-295.634962890625,0.9311071299135685,0.48133799406588074,-3.286677738380432
1621953365278030000,-295.62496997070315,-0.2626782920062542,3.8690170233309265,-3.254829478698969
1621953365288022500,-295.6149775390625,-5.116414792972803,11.901005959272384,-4.074744763103127
1621953365298015500,-295.6049846191406,-3.9348178214967247,12.789497936296462,-4.473173003292083
1621953365308008700,-295.5949912109375,-2.47993582380414,11.295422576856613,-5.008649999302626
1621953365318001400,-295.5849985351563,-2.9941280397236345,10.286563514220713,-6.826618290168047
1621953365327994600,-295.57500537109377,-2.58683786316514,6.535672519576549,-8.568316995823382
1621953365337987600,-295.56501245117187,-0.35385840956773607,2.288534131026268,-7.103182484185695
1621953365347980500,-295.55501953125,0.8114929084956646,-0.40441842051446436,-5.540732676699757
1621953365357973500,-295.5450266113281,1.2014081718832255,-2.6197961299151182,-4.926780694389343
1621953365367966700,-295.535033203125,1.5879752938866614,-4.295260322162509,-4.731840013830364
1621953365377959400,-295.5250405273438,1.7802829955935477,-5.456770783421397,-4.611371221409738
1621953365387952600,-295.51504736328127,1.8158862238943576,-6.0044864987581965,-4.542220236033201
1621953365397945600,-295.50505444335937,1.9973510445475577,-5.9622851873666045,-4.450397107860446
1621953365407939600,-295.4950603027344,2.2006688005685806,-5.635622206705809,-4.021337874825298
1621953365417932500,-295.4850673828125,2.622090378332138,-4.596998120403289,-3.313877003212273
1621953365427925500,-295.47507446289063,3.4196178898394107,-3.2163807978391645,-2.4720266581147907
1621953365437918700,-295.4650812988281,4.635504084408283,-1.6645003151625395,-1.6361702927350996
1621953365447911400,-295.4550886230469,6.12971505292654,0.16527239526510237,-0.7877960988268256
1621953365457904600,-295.4450954589844,7.304045248270034,2.2308728001743554,0.24708733964264393
1621953365467897600,-295.4351022949219,7.702398085135221,3.8875001900047064,1.5213579186409711
1621953365477890600,-295.425109375,7.145235327017307,4.313669254556298,2.647342308488488
1621953365487883500,-295.41511645507813,5.90984831316471,3.3010143067687747,3.1687229746073484
1621953365497876700,-295.4051232910156,4.504979177397489,1.64575586720407,3.1535593077450987
1621953365507869400,-295.3951306152344,3.4452877531468866,0.040102877807617184,2.7232880685716867
1621953365517862700,-295.3851374511719,2.4812591813623905,-1.304942780637741,2.036532715857029
1621953365527855600,-295.3751442871094,1.6415138457201421,-2.332607666030526,1.411936589935422
1621953365537848600,-295.3651513671875,0.9008112142406404,-3.060627341547608,0.9158920251250267
1621953365547842600,-295.35515747070315,0.23649624139294026,-3.4451112275362012,0.48589141958653925
1621953365557835500,-295.34516455078125,-0.3400666521131992,-3.5516251443624496,0.20261632975339888
1621953365567828700,-295.33517114257813,-0.8130696562930941,-3.393344799941778,0.2045931827843189
1621953365577821400,-295.3251784667969,-1.2131292970761656,-3.009465309587121,0.38191462002247567
1621953365587814700,-295.3151853027344,-0.8215177511647344,-1.9798855304837226,0.7826195729717612
1621953365597807600,-295.3051923828125,0.5684872852087021,0.03925122941434383,1.1599693692967294
1621953365607800600,-295.29519946289065,-0.17488193513154981,1.079665121743083,1.6721759643569587
1621953365617793500,-295.28520654296875,-1.5616884677246212,1.0052671756237745,2.305005957877636
1621953365627786800,-295.27521313476564,-2.471630644534528,0.7949708127617836,2.6698312036722895
1621953365637779500,-295.2652204589844,-2.7111943106740712,0.7104711593449116,2.7247575566023587
1621953365647772700,-295.2552272949219,-2.715404037323594,0.8042904297709464,2.8734648937746883
1621953365657765600,-295.245234375,-2.9702538276612755,0.6204460205048322,3.0217317937031387
1621953365667758600,-295.23524145507815,-3.0889938965931534,0.24628011491298674,2.8393884366497395
1621953365677751600,-295.22524853515625,-3.051852791200578,0.02929506806731224,2.576522513116896
1621953365687744500,-295.21525537109375,-3.068936027948558,-0.20308979248404502,2.430585079049319
1621953365697738800,-295.20526123046875,-3.1180943188712,-0.3890963482201099,2.3584707138225434
1621953365707731500,-295.1952685546875,-3.2095883612200615,-0.4706050031274557,2.3175074197933077
1621953365717724700,-295.185275390625,-3.2755440576866266,-0.4433732973307371,2.346731176190078
1621953365727717600,-295.1752824707031,-3.2295547521889207,-0.35142800408303737,2.4318236809335647
1621953365737710600,-295.1652893066406,-3.049668432898819,-0.18022680329084395,2.504373222707212
1621953365747703600,-295.15529638671876,-2.8299872788369655,0.10202712680101395,2.4610008217096326
1621953365757696500,-295.14530346679686,-2.662357214529812,0.46732057462930676,2.363105972407758
1621953365767689500,-295.135310546875,-2.4878537573218344,0.7724567831367254,2.278382739368081
1621953365777682400,-295.1253176269531,-2.2536825978755948,0.9531213933229445,2.247385397427529
1621953365787675600,-295.1153244628906,-2.0521137313485145,0.8893307659357785,2.266389226974547
1621953365797668400,-295.10533154296877,-1.8907360054343938,0.6888046864598989,2.380117751354724
1621953365807661600,-295.09533837890626,-1.7407827598541974,0.4820931963473558,2.689967105989158
1621953365817654500,-295.08534545898436,-1.4978402649313212,0.33801381123661994,3.1578450222402807
1621953365827647500,-295.0753525390625,-1.1144275153055787,0.2683428936392069,3.6531823155641554
1621953365837640400,-295.0653596191406,-0.5481348175317049,0.2987134819835424,4.088953028936684
1621953365847634400,-295.0553654785156,0.18807342513799666,0.3769827165782451,4.618806047585606
1621953365857627600,-295.0453723144531,0.9567053892895578,0.25844810709059235,5.080806888496875
1621953365867620400,-295.0353796386719,1.2707798142731188,0.2872200280666351,5.610595901998877
1621953365877613600,-295.0253864746094,1.231166765809059,0.49887540432214733,6.393694490659237
1621953365887606500,-295.0153935546875,1.2584297435268759,0.617740268677473,7.300463298130035
1621953365897599500,-295.005400390625,1.0129150600284338,0.29367899494767186,8.04026342781186
1621953365907592400,-294.9954074707031,0.2305947622641921,-0.47136020540893075,8.380487900835275
1621953365917585700,-294.9854143066406,-0.6380266853809357,-1.3491150998413561,8.176668625032901
1621953365927578400,-294.9754216308594,-1.1794529451847076,-2.157955448001623,7.422476397383212
1621953365937571600,-294.9654284667969,-1.3997779501080512,-2.72486686219573,6.390550347414613
1621953365947564500,-294.955435546875,-1.6449194163799286,-2.8103426671683787,5.159150941893458
1621953365957557800,-294.94544213867186,-1.858955842553079,-2.332185641226172,3.7630981497883793
1621953365967550500,-294.93544946289063,-1.8073147949039936,-1.2932161024868487,2.3893515897765756
1621953365977543700,-294.9254562988281,-1.5201017811000346,0.12147241650521755,1.335696815341711
1621953365987537700,-294.91546240234373,-1.1698820568282156,1.876037617996335,0.6860267461791634
1621953365997530400,-294.9054697265625,-1.1649953807651996,3.9002503659844394,0.28401480228453874
1621953366007523600,-294.8954763183594,-1.3845979166328906,5.944551962277293,-0.11371288841962814
1621953366017516500,-294.8854833984375,-1.5905401759386062,7.7880024849236005,-0.5682292187944055
1621953366027509500,-294.87549047851564,-1.8229203603148458,9.232826614460349,-0.9859954889208078
1621953366037502500,-294.86549755859374,-2.404192308294773,10.165212093746662,-1.651264986014366
1621953366047495700,-294.85550439453124,-3.400869934749603,9.845747500157355,-2.7286165701180694
1621953366057488600,-294.8455114746094,-3.103289840710163,7.501275793331861,-3.8310684009477494
1621953366067481600,-294.8355183105469,-1.8498644813418388,4.877956749987602,-4.649347024060786
1621953366077474600,-294.825525390625,-0.5729775458326563,2.8940017781078815,-5.113596228420734
1621953366087467800,-294.8155322265625,0.38725276618003845,1.3995418032646179,-5.396947306099534
1621953366097460500,-294.80553955078125,1.0770657528996468,0.44672143871486186,-5.399650135317445
1621953366107453700,-294.79554638671874,1.8391735759794712,-0.37447336410582066,-4.998139711204171
1621953366117446700,-294.78555322265623,2.163309668511152,-0.9396008174926042,-4.32571449713707
1621953366127439600,-294.7755603027344,2.289514958757162,-1.3962082749277351,-3.417610057148337
1621953366137433600,-294.76556640625,2.622688928747177,-1.4793816481769084,-2.5149346564710138
1621953366147426600,-294.7555734863281,3.100978641158342,-1.2667618108034133,-1.8216197991102934
1621953366157419800,-294.74558032226565,3.293535349190235,-1.0093424622386693,-1.4052917450934648
1621953366167412500,-294.73558740234375,3.03182853256464,-0.8517085990279912,-1.2585294045090674
1621953366177405700,-294.72559423828125,2.3255752831757066,-0.9456406821787356,-1.4401754269480704
1621953366187398700,-294.71560131835935,1.4569588039666412,-1.2114110949814318,-2.0194816278129815
1621953366197391600,-294.7056083984375,0.7575286785960197,-1.601124113795161,-2.717225407531857
1621953366207384600,-294.6956154785156,0.4320511083275079,-2.1028788729459045,-3.3311773898422716
1621953366217377500,-294.68562255859376,0.6309113004177809,-2.65222481983304,-3.848232593977451
1621953366227370500,-294.67562939453126,0.9624170449346303,-3.156002609243989,-4.295051647847891
1621953366237363500,-294.66563647460936,1.320856973606348,-3.553109829962253,-4.68530476488769
1621953366247356700,-294.65564331054685,1.5138281076580284,-3.9748043794482943,-4.9927527574688195
1621953366257349400,-294.6456506347656,1.6707886016517877,-4.098623066818714,-5.264772878316045
1621953366267342600,-294.6356574707031,1.6919991474628449,-3.8874434913814064,-5.497060708233714
1621953366277336600,-294.6256633300781,1.3684177662044763,-3.4786733053982255,-5.665764831513166
1621953366287329800,-294.6156701660156,0.9489888235628604,-3.246531021431088,-5.789619174718856
1621953366297322800,-294.60567724609376,0.31830724024772644,-3.2274948970496653,-5.80149315238595
1621953366307315700,-294.59568432617186,-0.20390110886693,-3.092336485019326,-5.643128636813163
1621953366317309000,-294.58569116210936,0.03965217489805072,-3.0366467465013263,-5.476033702296018
1621953366327301600,-294.5756984863281,-0.468397811939381,-2.854438414004445,-4.9676943040579555
1621953366337294800,-294.565705078125,-2.1825258256345985,-2.019454155284166,-4.0009947594985364
1621953366347287800,-294.5557121582031,-3.4181448946774005,-0.8976192863315343,-2.950085192118585
1621953366357280800,-294.54571923828127,-4.3353865808457135,0.6448959866285324,-1.4488734049275516
1621953366367273700,-294.53572631835937,-4.65941862848103,2.7666759593993424,0.9846499195307493
1621953366377267000,-294.52573315429686,-4.396740336474776,4.11535968208611,3.797400232362747
1621953366387259600,-294.515740234375,-3.682636373585462,4.35844538487196,6.521219631332158
1621953366397252900,-294.5057470703125,-2.694102306097746,4.024956942105293,9.384738008370995
1621953366407245800,-294.4957541503906,-2.3564134890317914,3.5529479173988103,12.443326537567376
1621953366417239800,-294.4857602539063,-2.648561621150374,2.833525974357128,14.623558114784956
1621953366427232800,-294.4757673339844,-3.3676258367955683,1.7962760990172624,15.163451758193968
1621953366437225700,-294.4657741699219,-4.1897640579462045,-0.1912088005542755,12.584103958523272
1621953366447219000,-294.45578100585936,-4.375422823157907,-2.2665309735327956,7.117361816185713
1621953366457211600,-294.44578833007813,-3.113079413318634,-3.0549943040966987,1.7558634246081113
1621953366467204900,-294.4357951660156,-1.2336369553148745,-2.8426334099203348,-1.301522158539295
1621953366477197800,-294.4258022460937,0.07376315534710884,-2.0601871476888656,-2.8600398872733113
1621953366487190800,-294.4158093261719,0.5592097172429785,0.08620002759397029,-3.1827970926672218
1621953366497183700,-294.4058161621094,0.35045700362641363,3.5716742451786994,-2.692358092778921
1621953366507177000,-294.39582299804687,-0.6542226909656077,8.45554635668993,-2.6288305002421137
1621953366517169700,-294.38583032226563,-2.901901006925106,13.98153914489746,-3.023749271005392
1621953366527163000,-294.3758371582031,-2.225664125615358,13.285384095674752,-3.110878103882074
1621953366537155800,-294.3658442382812,-0.7841547466497868,10.2109474244833,-4.039620258229971
1621953366547148800,-294.3558513183594,0.40008422723505643,5.926456333616375,-5.287300351944565
1621953366557141800,-294.3458581542969,1.3284277011215686,2.05339032715559,-5.7122723156660795
1621953366567135700,-294.3358642578125,1.6245944212317467,-0.7052788513988256,-5.7085693694949144
1621953366577129000,-294.32587109375,1.5733084706306457,-2.8575954167306423,-5.734530324703455
1621953366587121700,-294.31587841796875,1.3525427362024782,-4.191499503436685,-5.723150852555036
1621953366597115000,-294.30588500976563,1.064588548642397,-4.834105333301425,-5.734587607848644
1621953366607107800,-294.29589208984373,0.7067629524767398,-4.78083083923161,-5.808367714330553
1621953366617100800,-294.2858991699219,0.6006361352719366,-4.485761266708374,-5.778392847305536
1621953366627093800,-294.27590625,1.149140955159813,-4.057937420687079,-5.50937658444941
1621953366637087000,-294.2659130859375,1.900777653107792,-3.52353652947545,-5.036729846361279
1621953366647079700,-294.25592041015625,2.8019582851827143,-2.4821394713282583,-4.370998576974869
1621953366657073000,-294.24592700195313,3.8492531691968437,-0.8524936119258403,-3.472088958571851
1621953366667065900,-294.23593408203124,4.920025959432125,1.019369350734353,-2.3242367280483243
1621953366677058800,-294.2259411621094,6.177713652420044,2.8132670301824807,-1.0134282702475785
1621953366687051800,-294.2159482421875,7.326052497416734,3.925209450674057,0.19912994894236324
1621953366697044700,-294.20595532226565,7.206445290261507,3.961443962615728,1.2367103714108467
1621953366707039000,-294.1959609375,5.520988111788034,2.80323488098979,1.8568007103458046
1621953366717031700,-294.18596826171876,4.093569290560484,1.3612515278369188,2.0687176601469517
1621953366727025000,-294.17597509765625,3.180383601784706,0.23734452878534792,2.008380388084054
1621953366737017900,-294.16598217773435,2.380043370944261,-0.806262606626749,1.8343895565733312
1621953366747010800,-294.1559892578125,1.5510463699400423,-1.7513567608386278,1.5193652835190294
1621953366757003800,-294.1459963378906,0.7246762103080749,-2.450121700298786,1.1250456476926802
1621953366766996700,-294.1360031738281,0.008704553850740194,-2.877739794614911,0.7434609902769327
1621953366776989700,-294.12601025390626,-0.6132685300908982,-2.9833804357379674,0.565499793830514
1621953366786982700,-294.11601733398436,-1.148543427658081,-2.750094826954603,0.6838806740611791
1621953366796975900,-294.10602416992185,-1.3507353945195675,-2.2866303432315584,1.014818847823143
1621953366806968800,-294.09603125,-0.5719134602650999,-1.4888392123520373,1.502657602085173
1621953366816961800,-294.0860380859375,0.9860708922445773,-0.08352993160188198,1.8753522660806774
1621953366826954800,-294.0760451660156,0.30600188542604445,0.5844137531369924,2.0614403626203535
1621953366836948000,-294.06605200195315,-1.0644082236394286,0.10084756162762641,2.213499348308146
1621953366846941700,-294.0560583496094,-2.0373630292013285,-0.47129883061051364,2.237462407697737
1621953366856935000,-294.04606518554687,-3.216825034475326,-0.7669739678114652,2.2365517225936054
1621953366866927900,-294.03607202148436,-3.517245904898643,-0.883511266002059,1.9865493722870944
1621953366876920600,-294.0260793457031,-3.292817264048755,-1.0026011712849139,1.6701973577603697
1621953366886913800,-294.0160861816406,-2.8168615475431085,-1.1225649367928505,1.4456906832382082
1621953366896906800,-294.0060932617188,-2.492530516961217,-1.044244848793745,1.4937807604074478
1621953366906900000,-293.99610009765627,-2.244060783049464,-0.7419710439801216,1.6699296467348932
1621953366916892700,-293.986107421875,-1.966467830505967,-0.18791209709644316,1.9403364871665834
1621953366926886000,-293.97611401367186,-1.6671443999305366,0.48049686706662176,2.2523300142228604
1621953366936878800,-293.96612109375,-1.4644114580601453,0.9211872089236974,2.4124004569306967
1621953366946871800,-293.9561281738281,-1.4534925891608,0.9694131874322891,2.2615695517331362
1621953366956864800,-293.9461352539063,-1.7536255825534461,0.7204886954903602,1.8819129397705197
1621953366966858000,-293.93614208984377,-2.0946990736216304,0.43556466940641403,1.5316104325860738
1621953366976850700,-293.9261494140625,-2.313215275557339,0.2654793209016323,1.3789295156076549
1621953366986844700,-293.9161552734375,-2.323402030789852,0.16994330968558788,1.4133993559643625
1621953366996838000,-293.906162109375,-2.150205272266269,0.13884323802292345,1.6787717093601822
1621953367006830800,-293.89616918945313,-1.9642659365475177,0.25608839222192764,2.151566039225459
1621953367016823800,-293.88617626953123,-1.853148325318098,0.3745727328270674,2.736314138883352
1621953367026816800,-293.8761833496094,-1.7929262040674685,0.2804366515368223,3.313167101377249
1621953367036810000,-293.8661899414063,-1.7444208240956067,0.0783569128781557,3.792463068221509
1621953367046802700,-293.856197265625,-1.6705220596700905,-0.0841740747243166,4.273392189225555
1621953367056796000,-293.8462041015625,-1.4703236047133803,-0.264638778424263,4.735923483751714
1621953367066788900,-293.83621118164064,-1.1401406332328914,-0.6354764163762331,5.289442624670267
1621953367076781800,-293.82621826171874,-0.6886866130381822,-0.9834557413101196,6.027328445163369
1621953367086774800,-293.81622509765623,-0.3853039701998234,-0.9970897143870592,6.992343105375767
1621953367096768000,-293.8062319335937,-0.4855155720114708,-0.8467693890601397,7.983603382956981
1621953367106760700,-293.7962392578125,-0.8822302862808108,-0.9212877466887235,8.791626569515467
1621953367116754000,-293.78624609375,-1.0861457159340382,-1.270300506323576,9.353808032578229
1621953367126748000,-293.77625219726565,-0.8886886686399579,-1.838746875,9.479330016735195
1621953367136740900,-293.76625903320314,-0.5807762734174728,-2.5142209552437067,8.924724541884661
1621953367146733800,-293.75626611328124,-0.8056130566768348,-2.8422347659915683,7.333697459211945
1621953367156726800,-293.7462731933594,-1.5127040720641611,-2.637093886196613,5.167893051275611
1621953367166720000,-293.7362800292969,-2.075126358145475,-1.9932588067978618,3.218798380374908
1621953367176712700,-293.7262873535156,-2.1267047158218917,-0.8444464990705252,1.7546259917676448
1621953367186706000,-293.71629418945315,-2.002936735725403,0.8636211551398039,0.6828051537841558
1621953367196699000,-293.70630102539064,-1.9417349557876586,2.9633178909182547,-0.08134615782201289
1621953367206691800,-293.69630810546874,-1.9980407803773879,5.20467175309658,-0.5058347219407558
1621953367216684800,-293.6863151855469,-2.364080078136921,7.48697254269123,-0.7000339364826679
1621953367226678000,-293.6763220214844,-2.610883924663067,9.768127084860206,-0.8461006960183381
1621953367236670700,-293.6663293457031,-2.8172832800865173,11.811648928952216,-1.0149316605478524
1621953367246664000,-293.6563361816406,-3.1487258962392803,12.916336848270893,-1.5769222772136329
1621953367256658000,-293.6463420410156,-2.656168004500866,11.701676980626582,-2.562986155195534
1621953367266651000,-293.63634912109376,-1.8097113346517084,8.40420136937797,-3.82715035072118
1621953367276643800,-293.62635620117186,-0.8131354150056839,5.23977112352848,-4.632053651693463
1621953367286636800,-293.61636328125,0.4191126797666773,3.0695114897489546,-5.180585944110155
1621953367296630000,-293.6063698730469,1.128597202694416,1.3944862734407186,-5.550003193870187
1621953367306623000,-293.596376953125,1.5768459971070288,-0.03353051367998123,-5.589006001481414
1621953367316616000,-293.5863840332031,2.03039406697154,-1.1426514470100402,-5.198641825282573
1621953367326609000,-293.57639111328126,2.290148580485582,-1.631993883833289,-4.405601103800535
1621953367336601900,-293.56639819335936,2.3815549445509907,-1.6628320896893738,-3.366566683131456
1621953367346595000,-293.55640502929685,2.3498469701230524,-1.5324018752247095,-2.134801951429248
1621953367356587800,-293.546412109375,2.2573276763796803,-1.2208996388167142,-0.9868038826942443
1621953367366581000,-293.5364189453125,2.1664204940080642,-0.898793006286025,-0.15467267531752585
1621953367376574000,-293.5264260253906,1.8639432755768297,-0.7436497908473014,0.18187398597598076
1621953367386567000,-293.51643310546876,1.1369219634473322,-0.833092745885253,-0.022715105155110358
1621953367396561000,-293.5064392089844,0.4705734389454126,-1.0706915416926146,-0.8480091599881648
1621953367406553900,-293.49644604492187,0.2602192266826518,-1.345275375548005,-2.009063109651208
1621953367416546800,-293.486453125,0.3978974943131208,-1.7019710909008978,-3.024621377664804
1621953367426539800,-293.4764602050781,0.6846563346087933,-2.132930896860361,-3.8430747728228565
1621953367436533000,-293.4664670410156,1.1191987482953816,-2.4654157155424357,-4.4896875002413985
1621953367446526000,-293.4564741210938,1.44601363158226,-2.5463778424829244,-5.003604406350851
1621953367456519000,-293.4464812011719,1.7217834603518247,-2.440904374620318,-5.457153060737252
1621953367466512000,-293.43648803710937,2.0131898341923953,-2.2472692237019536,-5.900103164219856
1621953367476505000,-293.42649487304686,2.177739760401845,-2.0800340039312837,-6.412013406682014
1621953367486497800,-293.41650219726563,2.04747788824141,-2.0209972930729387,-6.94045159009695
1621953367496491000,-293.4065090332031,1.7050713950037955,-2.0608733763873577,-7.37714263318479
1621953367506484000,-293.3965161132812,1.5333160674601793,-2.147414180243015,-7.556496745294332
1621953367516477000,-293.3865231933594,1.4003741624355315,-2.1682477094352244,-7.3452388439238065
1621953367526470000,-293.3765300292969,0.839799623112753,-2.075208775731921,-6.749653123909234
1621953367536463000,-293.36653686523437,0.34729375382252037,-1.8325024276524782,-5.925750815695524
1621953367546457000,-293.35654296875,0.07992102038972079,-1.6028806020736694,-4.997334824562072
1621953367556449800,-293.34655029296874,-1.428995276764035,-0.6009399405241013,1.480152632549405
1621953367566443000,-293.3365568847656,-2.6961832040250298,-1.3336270233303307,7.248262570771574
1621953367576436000,-293.32656396484373,-0.8420031975716352,-2.623011584830284,3.977410762554407
1621953367586429000,-293.3165710449219,-0.9587731354743242,-1.6094365995883941,2.0569176244989036
1621953367596422000,-293.306578125,-2.0875942100524902,0.2162304290860891,1.5466253386273978
1621953367606415000,-293.2965849609375,-3.330391792422533,1.7376403701752423,1.5369900797978042
1621953367616407800,-293.28659228515625,-4.054629611313342,2.667702959471941,2.546051971529424
1621953367626401000,-293.27659887695313,-3.979784505948424,2.8596178624689577,4.926742115944624
1621953367636394000,-293.26660595703123,-3.427380925056338,2.2668325868278743,7.590321858006716
1621953367646387000,-293.2566130371094,-3.170015937027335,1.809716010826826,8.912866930830479
1621953367656380000,-293.2466201171875,-2.940431520849466,1.3534300404310227,8.335546350824833
1621953367666373000,-293.236626953125,-2.6467542794674634,0.9036053750038147,6.7843830765068525
1621953367676367000,-293.2266328125,-2.4459634115755557,0.8943208293080329,5.398117518922686
1621953367686359800,-293.21664013671875,-2.172390800589323,1.3731634994268416,4.635120053526759
1621953367696353000,-293.20664697265624,-2.5406986278027293,1.3073948499649761,3.312320129159093
1621953367706346000,-293.1966540527344,-3.2098791608601807,0.08356675648093223,0.35328912177979943
1621953367716339000,-293.1866611328125,-2.8643559969067574,-1.0582184290885925,-2.266648462432623
1621953367726332000,-293.1766682128906,-1.724022763711214,-1.3803648091077805,-3.1085464460641146
1621953367736325000,-293.1666748046875,-1.0667261451929808,-0.48040860426127907,-3.107816378223896
1621953367746317800,-293.15668212890625,-1.1273264521062374,2.659724235677719,-3.148994776308536
1621953367756311000,-293.14668896484375,-2.0933985124170778,7.984089120647311,-2.975588758948445
1621953367766304000,-293.13669604492185,-4.454653596261143,12.473558009701966,-2.529565239369869
1621953367776297000,-293.126703125,-4.831179801243543,13.723078762847184,-1.421578278505802
1621953367786290000,-293.1167099609375,-3.87404624966979,13.216154492104053,-0.4567565105170011
1621953367796283000,-293.1067170410156,-1.3427841432541607,10.799640462374686,-0.40668110474944114
1621953367806275800,-293.09672412109376,1.0015636449307204,5.159529712077975,-2.3509067083090542
1621953367816269800,-293.08673022460937,2.175927158021927,0.6047919397771359,-4.970433958154916
1621953367826263000,-293.07673706054686,4.173844019758701,-2.7914894981384277,-6.543403990611433
1621953367836256000,-293.06674389648435,5.842022146651148,-5.377160071089864,-6.811627641785145
1621953367846249000,-293.0567509765625,7.606583256977796,-7.464013691908121,-6.454510486149788
1621953367856242000,-293.0467580566406,5.96904518302083,-8.102120456787944,-5.78597468073666
1621953367866235100,-293.0367648925781,3.95340211045742,-6.711901777663827,-4.176318300917744
1621953367876227800,-293.02677221679687,2.9143501541316508,-3.8218963757157325,-3.079872724765539
1621953367886221000,-293.01677905273436,3.144375884336233,-1.0900152508437633,-3.784652394470572
1621953367896214000,-293.00678588867186,3.7707016105294224,1.1305056666642426,-4.244789195075631
1621953367906206700,-292.9967932128906,3.3820869083464142,2.7424475270718336,-3.761946057143807
1621953367916200000,-292.9868000488281,3.0260791752576828,3.541058742162585,-3.183048729340732
1621953367926193000,-292.9768071289063,3.608836977881193,3.4820284610450267,-2.8824413964346047
1621953367936185900,-292.9668142089844,4.347138393437862,2.951537436753511,-2.7659967449635268
1621953367946178800,-292.9568212890625,4.06761534961462,2.179294588628411,-2.350738950526714
1621953367956172000,-292.94682788085936,3.257480869990587,1.383511874961853,-1.3596461384668945
1621953367966166000,-292.936833984375,2.6529145556628704,0.4994651869088411,-0.26896803980022665
1621953367976159000,-292.92684106445313,1.808149492162466,-0.18923779274225233,0.24042875853627918
1621953367986152000,-292.91684814453123,1.0286461515150964,-0.2833276968032121,0.04404577021449804
1621953367996145000,-292.9068552246094,0.46305816794447596,0.31847967420518397,-0.2606795194044709
1621953368006137900,-292.8968620605469,-0.9494553450960665,1.5795827285945414,-0.9971186482205986
1621953368016130800,-292.886869140625,-3.0923744789421557,4.12679117668271,-2.299039742949605
1621953368026124000,-292.8768759765625,-1.1858709955334663,4.469917216366529,-1.7571739226847887
1621953368036116700,-292.86688330078124,0.4024338956337422,3.7933746301084756,-1.3427975872576237
1621953368046110000,-292.85689013671873,1.03743509571366,1.9507745868116617,-1.655543393985927
1621953368056103000,-292.8468969726562,1.2619102791190147,-0.3056201926320791,-1.7551242966786027
1621953368066095900,-292.8369040527344,1.1011386293392629,-1.3504986631542444,-1.7295666615739465
1621953368076088800,-292.8269111328125,1.0296727180838585,-1.769763939666748,-1.3794751667916774
1621953368086082000,-292.81691796875,1.6618576916992662,-1.601598161047697,-0.5699050430521369
1621953368096075000,-292.80692504882813,2.3287550822556016,-0.9133259740293025,0.07316986562907696
1621953368106068700,-292.79693115234375,2.1024539255321026,-0.4559469476997852,0.4890612817943096
1621953368116062000,-292.78693798828124,1.3387034498117862,-0.3835001356482506,1.052249291551113
1621953368126055000,-292.7769450683594,0.5252173216722905,-0.322950097617507,1.3209709553748368
1621953368136047900,-292.7669521484375,-0.1945302000619471,-0.29547289262712,1.2860402195081113
1621953368146040800,-292.7569592285156,-0.7759574847340583,-0.41505028916597364,1.2274398542404175
1621953368156034000,-292.74696606445315,-1.0687177574016153,-0.30894612218439577,1.0787059213221073
1621953368166026800,-292.73697314453125,-1.052853687185049,-0.36042028883397575,0.643745939810574
1621953368176020000,-292.72697998046874,-0.9341899714250117,-0.4064952267885208,0.34343905115574597
1621953368186013000,-292.7169870605469,-0.5857577881570906,-0.3650812663823366,0.5441559770286083
1621953368196006000,-292.706994140625,-0.1460251123510301,-0.04943243168890476,0.5854381277486682
1621953368205998800,-292.6970012207031,0.23216040414571762,0.2575800920844078,0.047487727361917496
1621953368215992000,-292.68700805664065,0.42461438245549793,0.3875584711283445,-0.7488283625289798
1621953368225985000,-292.67701489257814,0.32338666240386665,0.23446809656620024,-1.317229723019898
1621953368235978000,-292.66702197265624,0.11402823797911404,-0.08175415410101414,-1.3349378136679528
1621953368245971000,-292.6570290527344,-0.30869302420616146,-0.3551689441770315,-0.9247294115751982
1621953368255965000,-292.64703515625,-0.5577426768977195,-0.6147960319191217,-0.4770975800171494
1621953368265958000,-292.6370419921875,0.19532398078814148,-0.9037094199001788,0.8395750936418771
1621953368275950800,-292.6270490722656,0.3757971600554883,-0.7005272729575633,0.4435536223337054
1621953368285943300,-292.617056640625,0.4168025396607816,-0.2697182736456394,0.2823202733263373
1621953368295936300,-292.60706372070314,0.6762940913897008,0.2185363679409027,-0.024807401259243488
1621953368305929200,-292.59707080078124,1.457429344087839,-0.005910100826621055,0.18548019377440214
1621953368315922200,-292.5870778808594,2.2434522957623004,-0.18334698113799094,0.5028738263085484
1621953368325915400,-292.5770847167969,2.67180747218132,-0.35599604265093804,1.2526678189992904
1621953368335908000,-292.567091796875,2.512030751723051,-0.459912344199419,1.905704149724543
1621953368345901300,-292.5570986328125,1.3166039923369883,-0.17331366290152073,1.9453259660169482
1621953368355894300,-292.54710571289064,0.6019382308464497,-0.18560031302273272,1.747809005229175
1621953368365887200,-292.53711279296874,0.5013887753825634,-0.5097796601742506,0.5543865714028477
1621953368375880200,-292.5271198730469,0.4338099346935749,-0.5853150858908891,-0.8083303528115153
1621953368385873400,-292.5171267089844,0.8015091284893453,-0.18150807527303695,-1.6682658051759003
1621953368395866000,-292.5071337890625,0.9496154310286045,0.7498948227167129,-0.2551996266886592
1621953368405860000,-292.4971398925781,1.4232219540596007,1.5569570552885532,1.7686176922410726
1621953368415853300,-292.4871467285156,2.028722334367037,1.5295523310124872,1.7023013457685707
1621953368425846300,-292.47715380859376,1.9306079970955847,0.6981330712974071,0.15190700999647377
1621953368435839200,-292.46716088867186,0.7271838092148304,0.46020226705670353,-0.8669847863540053
1621953368445832200,-292.45716772460935,0.06834350491855293,1.0613906293839215,-1.336438865880668
1621953368455825400,-292.4471745605469,0.13698036676049233,1.1982114216685293,-1.5023001669496296
1621953368465818000,-292.4371818847656,0.17304653639793394,0.9002163170874118,-1.3804130321636796
1621953368475811300,-292.4271887207031,-0.14402502457499503,0.32568975171446796,-1.1504285107523202
1621953368485804300,-292.41719580078126,-0.43476679702699184,-0.48427580108344553,-0.8186673301696776
1621953368495797200,-292.40720263671875,-0.8117490021485835,-0.8220283310353755,-0.6062509064137935
1621953368505790200,-292.39720971679685,-0.8192915995478629,-0.6099550216287374,-0.7137380521863699
1621953368515783400,-292.3872165527344,-0.20472521166615187,-0.24130758719742296,-1.2886585853129624
1621953368525776100,-292.3772238769531,0.3442624233026057,-0.158980601644516,-1.7950895195811987
1621953368535769300,-292.3672307128906,-0.00460376746840775,-0.18214169700145721,-2.0090712929576635
1621953368545763300,-292.3572365722656,-0.5377635725777596,-0.368887088406086,-1.8008768708109855
1621953368555756300,-292.34724365234376,-0.5562684396266937,-0.33907530298829075,-1.6783055531531572
1621953368565749200,-292.33725073242186,-0.24716391201019286,0.008405424773693083,-1.6224091861471532
1621953368575742200,-292.3272578125,0.04452186329364776,0.04773673368692398,-1.677128910589218
1621953368585735400,-292.3172646484375,0.18805709505770354,0.25587270364463327,-1.7578025759771465
1621953368595728100,-292.3072719726562,0.09688450321555137,0.8004694101780653,-1.741566603708267
1621953368605721300,-292.2972785644531,-0.08238951112879439,1.1256517968922852,-1.6272069418177009
1621953368615714300,-292.28728564453127,-0.15836217748522757,1.078189788493514,-1.310455991101265
1621953368625707300,-292.27729272460937,-0.3725578858733177,1.012086792510748,-0.8554331725090741
1621953368635700200,-292.2672998046875,-0.9724071085512638,0.8501818278521299,-0.6488111142456531
1621953368645693200,-292.2573068847656,-2.0088976899564264,0.42569443277716634,-1.775789775827527
1621953368655686100,-292.2473139648437,-3.9115953513413664,0.8040519448399543,-4.17791112306714
1621953368665679000,-292.2373208007813,-3.8307214872062203,3.827025555297732,-0.36754385710358617
1621953368675672300,-292.22732763671877,0.28335754395220425,4.564207026913762,2.5929130914255976
1621953368685665000,-292.2173349609375,0.7663526210427284,3.525359653249383,3.282125189642608
1621953368695659300,-292.2073408203125,-0.8554162213742732,1.73867029774487,3.3711560567483305
1621953368705652200,-292.19734765625,-0.07046177571415901,0.42490182109475133,3.247663240331411
1621953368715645400,-292.1873544921875,0.7759621609091758,1.896511666226387,4.259969813072681
1621953368725638100,-292.17736181640623,-0.08357607229854912,3.5011651231914755,3.380096319051087
1621953368735631000,-292.1673688964844,-1.2763158210903405,3.180885121566057,1.900545451787114
1621953368745624300,-292.1573757324219,-2.3834745144367218,2.984466477409005,1.83858817730695
1621953368755617000,-292.14738305664065,-3.0806665054917333,3.819742997074127,1.6985694657638668
1621953368765610200,-292.1373896484375,-2.8014801462769507,4.807468670788407,1.7982652270078658
1621953368775603200,-292.12739672851563,-2.1626772158265113,4.8328170470565555,2.4838664412513376
1621953368785596200,-292.11740380859374,-1.4347615852057933,4.551045932045579,2.545161160169542
1621953368795589000,-292.1074108886719,-1.2480424972862005,5.114467166036367,1.8624597590208052
1621953368805582300,-292.0974177246094,-1.2844196325689554,5.7552364281237125,1.5710361417844891
1621953368815575000,-292.08742504882815,-0.7975117294162511,5.101156433564424,1.7169868737250567
1621953368825568300,-292.077431640625,-0.49291561913490295,4.206367402222752,1.9109318212449549
1621953368835561200,-292.06743872070314,-0.7358592100363225,4.5174978827089065,2.411495617045462
1621953368845555200,-292.05744482421875,-2.1922072616934773,5.165242829027772,2.0682067880153654
1621953368855548200,-292.04745190429685,-3.5656688672840593,4.60589278999865,1.2150953364521264
1621953368865541000,-292.037458984375,-4.86305845606327,3.3538410570710897,1.0413321762174368
1621953368875534300,-292.0274655761719,-5.84578705214262,2.4617975250452755,1.2042577160954475
1621953368885527000,-292.0174729003906,-5.980329962623119,1.8243594532072542,1.5171552062541245
1621953368895520300,-292.00747973632815,-4.9519560521781445,1.1465893709808588,2.6294354803979396
1621953368905513200,-291.99748681640625,-4.4412756437718865,0.9263082051992416,3.9912709456026554
1621953368915506200,-291.98749389648435,-4.3717479340374465,0.08265607137680053,4.578080653965473
1621953368925499100,-291.9775009765625,-3.9962586708873507,-0.912793474587798,5.327479217597842
1621953368935492400,-291.9675075683594,-3.448975501748919,-1.4144313293606041,5.834121748790144
1621953368945485000,-291.9575148925781,-3.579091827958822,-2.1243968772709367,5.966109129568934
1621953368955478300,-291.94752172851565,-4.292215547639131,-2.7271225321680306,5.605460877197981
1621953368965471200,-291.93752880859375,-4.754081948515773,-3.3848546194940803,5.621939718312024
1621953368975464400,-291.92753564453125,-5.257201566278934,-4.355901545608043,5.557820005100965
1621953368985457200,-291.91754296875,-5.24159950799942,-4.400709240105748,5.385333440673351
1621953368995451100,-291.907548828125,-5.175552041596174,-3.657859075203538,5.411558599776029
1621953369005444400,-291.8975556640625,-3.973751655524969,-3.284211640527844,5.558178317019343
1621953369015437000,-291.8875629882813,-2.2347978646636006,-4.443717776226997,5.347100448390841
1621953369025430300,-291.87756982421877,-1.4351134673833845,-4.794895604941249,5.289218752786517
1621953369035423200,-291.86757666015626,-0.8729799351155757,-4.549460708680749,5.292621254706383
1621953369045416200,-291.85758374023436,-0.21168401782810686,-4.4612697995305055,5.736339419952035
1621953369055409200,-291.8475908203125,0.6956161200404167,-4.142711507131159,6.164611009740829
1621953369065402400,-291.83759765625,1.4859019898563623,-3.317608298695087,6.244753636991978
1621953369075395300,-291.8276047363281,1.9563094245851038,-2.046431594058871,6.011237726584077
1621953369085388300,-291.81761181640627,2.7680630298435687,-0.8256593810141086,5.263318003332615
1621953369095381200,-291.80761865234376,3.5358640961289405,0.42245384342074394,4.273283468154072
1621953369105374500,-291.79762548828126,3.9388527761012315,1.6336992264464496,3.634068742032349
1621953369115367200,-291.7876328125,3.7757501260906454,2.4654694915562865,2.8921251705810427
1621953369125360000,-291.7776398925781,3.6323067007958887,2.8531673711553216,1.8386194492280483
1621953369135353300,-291.7676467285156,2.8512001627355814,2.9978862232133743,0.6681096889555453
1621953369145346000,-291.7576540527344,2.871708113235235,3.0514339812666176,-0.37060587502270936
1621953369155340300,-291.7476596679688,3.556096152296662,3.330924584124982,-0.7451414907097816
1621953369165333200,-291.7376667480469,3.4649189208120106,4.131819233977795,-1.1418605888932942
1621953369175326500,-291.72767358398437,3.7591467818140982,5.1619490481793875,-1.620729270236194
1621953369185319200,-291.71768090820314,3.74605056887567,6.038626668769121,-1.5486428159296513
1621953369195312400,-291.7076875,3.064683923462033,6.126464526697993,-1.4874343139901756
1621953369205305300,-291.6976945800781,2.4031395843714476,5.566814627939462,-1.5788178817018865
1621953369215298000,-291.6877019042969,2.490245620894432,4.782039338238537,-1.6321455672636627
1621953369225291300,-291.6777087402344,2.5473738677829503,4.190267915815115,-1.5963187593400476
1621953369235284200,-291.6677158203125,2.2004788309544323,4.03359734467864,-1.4419541270583867
1621953369245277200,-291.65772290039064,1.9753151538282632,4.134722846464813,-1.591751743685454
1621953369255270100,-291.64772973632813,1.3425848212897777,4.028989850883185,-1.7799800671242176
1621953369265263400,-291.6377365722656,0.7870107936680316,3.575059503702819,-1.6797651043117046
1621953369275256000,-291.6277438964844,1.0562269630104302,3.3962659480854867,-1.4215059439219533
1621953369285249800,-291.6177502441406,1.2817916221529244,3.7836484781250355,-1.0494463629595934
1621953369295242500,-291.6077575683594,1.4834364765256642,4.157701863253116,-0.7249637950778007
1621953369305235700,-291.59776440429687,1.6637462819248436,4.162912291377783,-1.08016035791412
1621953369315228700,-291.58777124023436,0.9925181686878204,3.902679054436087,-1.5520643148109317
1621953369325222400,-291.57777758789064,0.815968008083105,3.5726737776100634,-0.5124591085165738
1621953369335215600,-291.56778442382813,1.1040589737653732,3.5137668306112286,0.03128854343947023
1621953369345208600,-291.55779150390623,1.3528268138408661,3.549430849188566,0.9096515233002602
1621953369355201800,-291.5477980957031,1.1660638867795468,3.335964624118805,1.498259951648116
1621953369365194500,-291.5378054199219,0.8783446770191192,2.959069001302123,1.660397409888357
1621953369375187700,-291.5278122558594,0.6204805072963238,2.5541052218645808,1.0774285217974335
1621953369385180700,-291.5178193359375,0.23750994848012924,2.1077894413411618,-0.8230090857010334
1621953369395173600,-291.50782641601563,0.12063713472485542,1.997770146742463,-3.0200273278728127
1621953369405166600,-291.49783349609373,0.5826771386027336,2.0618062733232976,-2.8838351888805627
1621953369415159800,-291.4878400878906,0.7401882522165775,2.0790847403824326,-1.2505483426272868
1621953369425152500,-291.4778474121094,0.857266817677021,2.341903317642212,-0.1461668589092791
1621953369435145700,-291.4678542480469,0.7862970924407243,2.4094524207800627,0.016726386134326456
1621953369445138700,-291.457861328125,0.6416822852790355,2.200623207861185,-0.5483978523820638
1621953369455131600,-291.44786840820314,0.7184931377589702,1.8742671011924743,-1.0432716198474168
1621953369465124600,-291.43787548828124,0.7609954779237509,1.817166911354661,-1.090873913499713
1621953369475117600,-291.42788232421873,0.6936801835417747,1.8067267658829689,-1.0368543001510202
1621953369485111800,-291.41788818359373,0.4807002806842327,1.7246517092645168,-0.8527918642200529
1621953369495104500,-291.4078955078125,0.10890636492073535,1.4242197329252957,-0.7442796131834387
1621953369505097700,-291.39790234375,-0.39695933668017386,0.8919377335637807,-0.8215437623888253
1621953369515090700,-291.38790942382815,-0.6986953813552856,0.2681155146241188,-1.1565583918094635
1621953369525083600,-291.37791625976564,-0.5341852026343346,-0.11640753433108329,-1.2374088750690222
1621953369535076600,-291.36792333984374,0.15018413172662257,-0.08561959735751151,-1.1980395722329615
1621953369545069600,-291.3579304199219,0.7807973259806632,0.21690146021544932,-1.1378247575059532
1621953369555062500,-291.3479375,1.2165063722938299,0.5785270331859589,-0.92071608428061
1621953369565055500,-291.3379445800781,1.4352940846472977,0.7621604300498962,-0.5509904992237686
1621953369575048700,-291.32795141601565,1.3193325405180454,0.855614374294877,-0.34414515359848735
1621953369585041400,-291.31795849609375,0.9616554129123687,0.8582651810646057,-0.1745563564389944
1621953369595034600,-291.30796533203124,0.7937199359178543,0.7418027016758918,-0.07174655482769011
1621953369605027600,-291.2979724121094,0.7625298478841781,0.581242137363553,-0.05585267399474978
1621953369615020500,-291.2879794921875,0.6298948168516159,0.2943260606795549,0.02160305225998163
1621953369625013500,-291.2779865722656,0.43701545273661613,0.013901684102416038,0.17916911093145607
1621953369635006700,-291.2679931640625,0.08024667214751244,-0.0715033937215805,0.4582021792806685
1621953369645000700,-291.2579992675781,-0.09558335748910904,-0.2111813290029764,0.5148510451544076
1621953369654993400,-291.24800659179687,-0.1155009408801794,-0.3082610625296831,0.3414191992333159
1621953369664986600,-291.23801342773436,-0.3035159138292074,-0.2126590003401041,0.2604371254833415
1621953369674979600,-291.2280205078125,-0.5584679954975843,-0.10014321275055407,0.30690840581171214
1621953369684972500,-291.21802734375,-0.6121744512438774,-0.09305646935999393,0.4014744394844398
1621953369694965500,-291.2080344238281,-0.34248423464894295,-0.055468789243698115,0.3406565808303654
1621953369704958700,-291.1980412597656,0.053149406385421746,0.024859715968370437,0.06930749111250042
1621953369714951400,-291.18804858398437,0.2731388957440853,0.08016717717051505,-0.05881152380034327
1621953369724945700,-291.1780544433594,0.2265969247996807,0.1285802026838064,0.0005981120236217975
1621953369734938600,-291.16806127929686,0.09187807323038577,0.1489975522905588,0.04205693448483944
1621953369744931600,-291.158068359375,0.03069792060256004,0.13140636602044103,-0.039695392985269425
1621953369754924500,-291.1480754394531,0.018200842601060866,0.17403145578205584,-0.018924992157146332
1621953369764917500,-291.1380825195312,-0.027466099074482917,0.21891864525675772,0.03495718548223376
1621953369774910700,-291.1280893554688,0.009645780223608017,0.2242354563653469,-0.02509535135515034
1621953369784903400,-291.1180966796875,0.13182313012778757,0.24617899262607096,0.020414719258248806
1621953369794896600,-291.10810327148437,0.1289946287035942,0.2539525492370128,0.024310046196356416
1621953369804889600,-291.0981103515625,0.1301525665670633,0.21382979768514632,-0.0762776223860681
1621953369814882600,-291.0881174316406,0.14016893366873265,0.23266952271163463,-0.16884966922998426
1621953369824875500,-291.0781245117187,0.13947627522945402,0.3228314396739006,-0.21497348782755432
1621953369834868700,-291.0681313476563,0.15736965931653976,0.4367448191016912,-0.20075543125234543
1621953369844861400,-291.058138671875,0.155302789914608,0.40847850956022735,-0.22344540196619928
1621953369854854700,-291.04814526367187,0.11817980470061301,0.3380132267147302,-0.1846659547820687
1621953369864847600,-291.03815234375,0.051852352312207216,0.25895488756895063,-0.07265957801938057
1621953369874841600,-291.02815844726564,0.07547346639633178,0.2142442237049341,0.002874021066352725
1621953369884834600,-291.01816552734374,0.06628419776856899,0.23147592901289463,0.016139087765663862
1621953369894827500,-291.00817236328123,-0.07609422864317894,0.2964531358361244,0.019978154471889137
1621953369904820700,-290.9981791992187,-0.12438275099396705,0.29606968947649,-0.014294921203702687
1621953369914813400,-290.9881865234375,-0.07116320198178291,0.24271511590778827,-0.051361573120579124
1621953369924806700,-290.978193359375,-0.10859598379731178,0.18117782040536404,-0.15524857550933957
1621953369934799600,-290.96820043945314,-0.12157587687969207,0.2084808378726244,-0.28695976969525216
1621953369944792600,-290.95820751953124,-0.04827098669409752,0.29755379055440423,-0.34568851058296857
1621953369954785500,-290.94821435546874,-0.11193594187498092,0.33145489111244675,-0.2592631498005241
1621953369964778800,-290.9382211914062,-0.15124445443451404,0.27359306925237176,-0.1546932066489011
1621953369974771500,-290.928228515625,-0.09953121833205222,0.1965554222792387,-0.09028342445008457
1621953369984764700,-290.9182353515625,-0.0361111778229475,0.18786182821393013,-0.05849807393699884
1621953369994757600,-290.90824243164064,0.05119768779575824,0.21063597007989882,-0.11786401674970984
1621953370004750600,-290.89824951171875,0.10036240845918655,0.27774609727859495,-0.15928557594045994
1621953370014743600,-290.88825634765624,0.10061959809064865,0.3574900806009769,-0.12990969772189856
1621953370024736800,-290.87826318359373,0.033114334094524384,0.3454354856699705,-0.10479834508001803
1621953370034730800,-290.8682692871094,-0.09109890555143356,0.2632657365053892,-0.11466836251355707
1621953370044723500,-290.8582766113281,-0.20890110911130905,0.14822013817727564,-0.11030161867141723
1621953370054716700,-290.8482834472656,-0.25421675313115116,0.11036650060117244,-0.1203885667912662
1621953370064709600,-290.83829028320315,-0.20650866101682186,0.10272329237163066,-0.14411489481553436
1621953370074702600,-290.82829736328125,-0.14054653480947016,0.05487082335054874,-0.15011238166466354
1621953370084695600,-290.81830444335935,-0.13630699754357337,0.07234744333028793,-0.03974968045577407
1621953370094688800,-290.8083112792969,-0.1097317098289728,0.0838251151561737,0.003100596363842487
1621953370104681500,-290.7983186035156,-0.04867489131987095,0.0759346541672945,-0.09559066401273011
1621953370114674700,-290.7883251953125,0.030002924075722692,0.1595633699685335,-0.12531214079856873
1621953370124667600,-290.77833227539065,0.04598609062731266,0.1930342624157667,-0.16990560802370308
1621953370134660600,-290.76833935546875,0.10606909566819667,0.2368003389060497,-0.1979618550110608
1621953370144653600,-290.75834643554685,0.15805354992747306,0.30418051521778106,-0.1717635108500719
1621953370154646500,-290.748353515625,0.29767537110745906,0.32800913457274433,-0.24771007465086875
1621953370164639700,-290.7383603515625,0.33276772727668286,0.330287016376853,-0.2802824838884175
1621953370174632400,-290.7283674316406,0.3187795339345932,0.2586766551494598,-0.12369893344826996
1621953370184625700,-290.7183742675781,0.4004471787959337,0.16053309178352354,0.13721556375585495
1621953370194619600,-290.70838037109377,0.4712561605125665,0.05748129810988903,0.3111758905304596
1621953370204612600,-290.69838745117187,0.6001029051780701,0.013368015617132186,0.40165860041230916
1621953370214605600,-290.68839453125,0.8840192155241966,0.11075929931104182,0.4051306604370475
1621953370224598500,-290.6784013671875,-0.5169844769865274,0.031171383333206175,0.24587664867863057
1621953370234591700,-290.668408203125,-0.9049947835355997,-0.04171265109181404,0.16326872729249298
1621953370244584400,-290.6584155273438,-0.9569751461416482,0.013842062869668006,0.13405899942107496
